aX,aY,aZ,gX,gY,gZ
0.123,0.759,-0.953,-203.328,-74.817,1.366
0.243,0.572,-1.021,-250.137,-46.237,13.206
0.319,0.307,-1.004,-250.137,14.573,17.534
0.402,0.088,-0.795,-250.137,87.023,6.443
0.419,-0.115,-0.528,-250.137,167.145,-17.595
0.329,-0.218,0.019,-250.137,243.534,-51.870
0.167,-0.325,0.670,-250.137,250.130,-80.389
-0.039,-0.342,1.321,-250.137,250.130,-100.824
-0.291,-0.373,1.947,-250.137,238.656,-112.756
-0.476,-0.340,2.000,-250.137,206.221,-114.511
-0.706,-0.373,2.000,-240.588,151.496,-105.260
-0.813,-0.334,2.000,-166.679,89.802,-85.305
-0.865,-0.325,2.000,-97.802,31.756,-57.679
-0.811,-0.326,2.000,-37.916,-7.977,-26.305
-0.723,-0.346,2.000,9.260,-31.244,3.008
-0.581,-0.358,2.000,47.763,-43.038,29.595
-0.432,-0.337,1.922,80.244,-51.794,48.832
-0.291,-0.275,1.744,102.733,-57.321,58.702
-0.167,-0.201,1.610,120.634,-58.733,63.840
-0.058,-0.145,1.480,139.511,-59.863,65.618
0.032,-0.086,1.352,159.336,-61.779,62.229
0.100,-0.034,1.206,180.382,-61.412,54.885
0.143,0.012,1.075,200.046,-57.947,43.649
0.152,0.026,0.957,213.618,-54.824,31.061
0.154,0.083,0.842,219.534,-52.260,17.305
0.133,0.129,0.759,218.878,-48.832,2.916
0.096,0.194,0.691,212.962,-45.672,-11.443
0.056,0.242,0.617,204.168,-45.038,-23.443
-0.009,0.297,0.601,192.924,-44.351,-31.542
-0.027,0.386,0.548,178.947,-40.794,-35.740
-0.048,0.434,0.541,170.046,-35.221,-35.282
-0.051,0.479,0.523,163.069,-30.565,-31.473
-0.060,0.523,0.517,158.328,-22.992,-26.168
-0.072,0.557,0.497,153.534,-15.137,-20.183
-0.084,0.596,0.513,147.206,-8.771,-13.664
-0.088,0.627,0.524,141.153,-3.542,-6.519
-0.083,0.651,0.519,135.824,3.427,3.000
-0.070,0.668,0.520,132.847,6.969,11.267
-0.064,0.669,0.514,131.260,9.382,17.534
-0.051,0.679,0.515,128.344,12.107,22.412
-0.034,0.653,0.507,123.565,15.412,25.435
-0.011,0.679,0.523,117.855,17.061,25.282
-0.017,0.682,0.520,113.695,15.397,23.687
-0.012,0.688,0.514,111.023,12.168,20.221
0.001,0.709,0.508,109.481,7.809,16.824
0.005,0.719,0.496,106.771,5.267,14.473
0.013,0.737,0.488,103.939,2.878,13.573
0.009,0.745,0.472,101.664,1.924,13.626
0.006,0.766,0.465,98.504,1.458,14.031
0.001,0.775,0.455,96.656,-1.947,14.359
0.011,0.780,0.435,94.305,-6.916,15.733
0.013,0.799,0.417,90.573,-10.336,16.573
0.016,0.804,0.402,86.389,-13.450,16.786
0.025,0.809,0.388,82.214,-16.221,17.351
0.032,0.823,0.365,78.107,-19.084,17.756
0.039,0.838,0.354,73.000,-21.069,18.344
0.060,0.844,0.345,67.534,-19.557,19.130
0.093,0.866,0.334,63.939,-10.748,20.580
0.091,0.862,0.340,62.939,-4.160,21.534
0.085,0.841,0.348,63.130,-2.450,22.344
0.097,0.854,0.353,63.015,-4.382,22.687
0.103,0.849,0.329,63.031,-5.008,21.443
0.110,0.846,0.332,61.198,-4.405,19.176
0.104,0.849,0.321,58.305,-5.611,16.420
0.105,0.860,0.313,54.748,-9.527,13.962
0.111,0.877,0.297,49.481,-15.649,11.656
0.106,0.870,0.272,43.397,-19.015,8.977
0.106,0.880,0.262,36.183,-20.427,5.779
0.117,0.907,0.250,29.389,-20.183,3.366
0.106,0.909,0.230,24.817,-17.931,2.595
0.111,0.915,0.231,21.290,-13.695,3.748
0.112,0.912,0.231,18.099,-8.198,5.893
0.121,0.908,0.231,15.481,-3.130,7.466
0.118,0.910,0.242,13.542,0.458,8.328
0.121,0.894,0.250,11.733,-0.092,7.527
0.142,0.887,0.249,10.061,1.649,6.046
0.139,0.881,0.255,8.191,9.420,2.992
0.131,0.891,0.293,5.672,13.794,-0.947
0.127,0.904,0.298,3.878,12.229,-3.237
0.104,0.907,0.309,3.702,8.565,-4.908
0.094,0.914,0.315,4.397,7.382,-5.015
0.081,0.923,0.325,4.160,5.656,-4.412
0.075,0.921,0.336,3.076,2.099,-2.740
0.075,0.932,0.323,2.420,-1.061,-0.977
0.082,0.921,0.318,2.733,0.145,0.611
0.100,0.926,0.306,2.893,2.588,1.939
0.101,0.921,0.312,2.397,3.947,3.168
0.105,0.910,0.325,1.076,3.992,3.466
0.096,0.916,0.324,-0.031,3.405,3.076
0.096,0.905,0.329,-0.641,2.534,2.130
0.096,0.905,0.321,-0.511,1.847,2.336
0.101,0.904,0.327,0.397,3.511,3.145
0.100,0.907,0.333,0.893,4.580,3.206
0.103,0.908,0.339,1.611,4.802,2.695
0.108,0.913,0.335,2.405,5.046,1.641
0.106,0.910,0.329,3.427,3.840,0.191
0.109,0.917,0.333,4.374,1.855,0.069
0.103,0.916,0.332,4.397,0.641,0.534
0.099,0.922,0.318,4.153,0.015,0.992
0.104,0.919,0.323,3.290,0.817,1.817
0.097,0.920,0.321,2.817,3.237,2.511
0.091,0.920,0.323,2.595,4.221,3.321
0.086,0.932,0.333,3.313,3.420,4.588
0.085,0.927,0.336,4.031,2.053,6.519
0.088,0.923,0.333,4.137,0.328,7.626
0.094,0.920,0.329,4.634,-1.618,8.359
0.093,0.920,0.321,4.641,-1.718,9.008
0.106,0.912,0.334,4.656,-2.504,9.443
0.117,0.908,0.317,4.550,-2.885,9.649
0.122,0.903,0.320,5.061,-1.824,8.870
0.125,0.904,0.325,5.519,-1.527,7.634
0.135,0.909,0.324,6.321,-2.573,6.420
0.138,0.903,0.312,6.947,-3.092,5.214
0.129,0.906,0.302,7.397,-3.038,3.908
0.135,0.917,0.285,8.031,-3.282,3.229
0.132,0.922,0.273,7.695,-4.099,4.061
0.134,0.922,0.245,5.977,-3.000,4.840
0.141,0.924,0.228,3.687,-1.366,5.405
0.155,0.913,0.231,0.046,0.191,5.336

0.189,1.021,-0.585,-37.947,5.008,-6.107
0.163,0.970,-0.787,-72.542,4.061,-3.687
0.218,0.920,-0.936,-127.504,20.924,2.626
0.190,0.816,-1.042,-194.809,57.908,3.809
0.158,0.546,-1.009,-250.137,103.878,1.374
0.124,0.365,-0.842,-250.137,115.840,-10.298
0.146,0.221,-0.538,-250.137,118.351,-28.672
0.178,0.179,-0.330,-250.137,132.672,-47.847
0.117,0.100,-0.030,-250.137,149.763,-64.076
0.049,0.043,0.318,-250.137,159.672,-72.916
-0.014,0.044,0.687,-250.137,181.206,-78.092
-0.138,0.036,1.076,-250.137,194.542,-79.595
-0.252,0.033,1.425,-250.137,192.725,-76.183
-0.339,-0.007,1.756,-250.137,182.069,-67.061
-0.443,-0.056,2.000,-250.137,172.641,-55.573
-0.539,-0.075,2.000,-219.412,160.931,-44.855
-0.633,-0.059,2.000,-163.504,136.267,-33.336
-0.704,-0.058,2.000,-109.740,97.740,-20.092
-0.726,-0.027,2.000,-57.298,47.305,-5.382
-0.685,-0.013,2.000,-1.664,-8.962,11.962
-0.565,0.026,2.000,44.099,-43.344,27.618
-0.435,0.060,1.999,85.809,-60.534,42.832
-0.301,0.104,1.766,125.389,-66.740,56.221
-0.200,0.132,1.560,157.496,-76.969,65.031
-0.123,0.151,1.384,179.473,-89.580,66.809
-0.050,0.186,1.222,196.351,-101.321,63.420
0.016,0.211,1.061,208.038,-108.550,56.023
0.063,0.246,0.901,216.267,-111.198,45.626
0.077,0.278,0.779,220.443,-111.947,35.786
0.094,0.333,0.684,221.076,-109.359,25.931
0.090,0.378,0.590,217.420,-102.794,16.649
0.096,0.443,0.512,211.198,-93.084,9.298
0.100,0.483,0.467,204.863,-85.557,4.733
0.097,0.544,0.405,197.710,-72.466,2.008
0.079,0.574,0.357,190.435,-58.015,0.466
0.083,0.607,0.332,181.618,-42.076,0.244
0.071,0.648,0.334,170.023,-27.252,0.198
0.050,0.689,0.353,157.695,-21.443,0.511
0.036,0.706,0.367,147.214,-25.382,0.267
0.039,0.734,0.363,139.427,-32.130,0.099
0.047,0.756,0.350,134.031,-34.481,0.550
0.072,0.775,0.335,131.916,-34.191,1.870
0.065,0.774,0.330,129.977,-29.985,3.092
0.069,0.790,0.313,127.939,-23.687,4.985
0.089,0.808,0.302,125.931,-18.206,7.031
0.080,0.828,0.286,124.275,-14.168,8.924
0.085,0.831,0.296,121.214,-10.260,10.664
0.094,0.832,0.296,117.198,-6.908,12.069
0.097,0.842,0.288,112.802,-2.748,12.260
0.089,0.849,0.279,109.870,-2.687,11.573
0.086,0.859,0.277,106.626,-4.176,10.832
0.088,0.868,0.273,103.756,-7.328,10.336
0.096,0.872,0.250,99.641,-12.351,10.084
0.094,0.894,0.228,96.153,-17.992,10.176
0.096,0.905,0.202,93.176,-20.863,9.908
0.104,0.895,0.204,89.405,-24.687,10.496
0.102,0.905,0.184,84.893,-28.901,10.817
0.118,0.916,0.160,80.145,-32.160,11.031
0.131,0.923,0.140,75.893,-33.679,11.328
0.145,0.913,0.111,71.397,-31.641,11.580
0.156,0.917,0.093,64.779,-26.885,11.527
0.166,0.930,0.092,59.053,-24.573,10.802
0.177,0.928,0.080,51.847,-21.351,9.840
0.178,0.935,0.060,45.824,-18.252,8.092
0.175,0.945,0.079,39.153,-16.206,6.115
0.164,0.946,0.069,32.359,-16.832,4.840
0.175,0.948,0.074,25.527,-17.618,4.183
0.179,0.944,0.056,19.885,-15.603,3.840
0.174,0.945,0.059,15.573,-12.435,3.313
0.167,0.956,0.071,11.397,-8.290,2.710
0.182,0.956,0.076,7.687,-4.389,2.725
0.184,0.948,0.098,4.527,-1.153,3.405
0.181,0.950,0.098,2.359,1.573,3.336
0.177,0.949,0.131,0.870,1.695,2.130
0.164,0.943,0.147,-0.519,-0.321,1.336
0.181,0.940,0.145,-0.969,-0.176,1.176
0.190,0.944,0.134,0.176,5.511,1.000
0.177,0.944,0.172,0.130,7.718,-0.313
0.176,0.954,0.192,-2.137,3.771,-1.076
0.184,0.946,0.191,-4.374,1.855,-1.298
0.202,0.956,0.191,-3.527,7.794,-1.282
0.178,0.951,0.227,-2.992,9.489,-2.153
0.167,0.953,0.245,-2.908,2.672,-3.145
0.169,0.945,0.231,-2.015,-2.519,-3.550
0.174,0.955,0.224,-0.099,-2.321,-4.000
0.171,0.961,0.235,2.695,-1.137,-4.069
0.164,0.953,0.233,4.450,-1.557,-3.985
0.168,0.966,0.216,5.817,-1.641,-3.527
0.160,0.967,0.209,6.466,-0.672,-3.435
0.156,0.963,0.197,6.405,0.458,-3.160
0.157,0.966,0.198,6.733,1.924,-2.748
0.142,0.962,0.200,6.634,1.832,-2.359
0.144,0.959,0.191,6.237,-0.389,-1.802
0.145,0.962,0.176,6.076,-2.580,-1.275
0.157,0.956,0.174,6.603,-2.405,-0.740
0.158,0.956,0.164,7.183,-0.802,-0.519
0.159,0.948,0.162,7.092,0.672,-0.969
0.162,0.955,0.155,6.740,1.275,-1.282
0.156,0.953,0.154,6.130,1.595,-1.878
0.155,0.949,0.150,4.924,1.580,-1.725
0.158,0.958,0.162,4.099,3.076,-1.366
0.151,0.960,0.160,3.634,4.145,-0.725
0.153,0.964,0.173,3.542,4.542,0.137
0.151,0.969,0.178,3.634,4.328,0.977
0.151,0.960,0.189,4.076,3.137,1.863
0.148,0.965,0.189,4.840,0.939,2.573
0.156,0.957,0.189,6.160,-0.328,3.145
0.147,0.964,0.189,7.489,-0.863,3.504
0.156,0.960,0.182,8.557,-0.137,3.763
0.169,0.959,0.172,9.550,-1.282,4.069
0.162,0.963,0.174,9.916,-3.031,4.382
0.166,0.957,0.165,9.962,-2.641,4.557
0.164,0.957,0.159,9.908,-1.573,5.031
0.164,0.971,0.159,9.916,-3.282,5.641
0.164,0.965,0.162,10.229,-4.840,6.359
0.172,0.963,0.154,10.641,-4.702,6.244
0.174,0.956,0.152,10.847,-4.725,6.176
0.183,0.971,0.144,10.725,-4.710,6.000
0.180,0.953,0.145,10.183,-4.603,5.756

0.096,0.998,-0.728,-76.580,-32.061,-2.595
0.180,0.964,-0.895,-114.901,-44.702,5.031
0.180,0.897,-1.006,-165.450,-28.618,12.878
0.202,0.743,-1.104,-229.794,6.435,19.511
0.220,0.585,-1.069,-250.137,46.542,20.252
0.203,0.364,-1.029,-250.137,90.168,13.214
0.213,0.186,-0.864,-250.137,126.458,-2.198
0.210,-0.019,-0.659,-250.137,154.557,-25.389
0.182,-0.188,-0.475,-250.137,171.176,-46.084
0.199,-0.260,-0.249,-250.137,200.687,-64.588
0.144,-0.259,0.209,-250.137,250.130,-87.405
0.011,-0.266,0.585,-250.137,250.130,-105.641
-0.225,-0.311,1.087,-250.137,250.130,-119.550
-0.358,-0.256,1.499,-250.137,250.130,-124.496
-0.487,-0.262,1.854,-250.137,226.611,-121.855
-0.591,-0.301,2.000,-250.137,204.260,-111.511
-0.719,-0.309,2.000,-250.137,189.550,-95.870
-0.848,-0.284,2.000,-216.748,164.748,-77.191
-0.983,-0.230,2.000,-137.389,123.145,-55.092
-1.070,-0.202,2.000,-66.252,66.802,-30.740
-1.052,-0.150,2.000,-4.053,7.649,-1.802
-0.942,-0.112,2.000,51.450,-43.366,31.130
-0.773,-0.117,2.000,91.427,-71.008,57.176
-0.623,-0.092,1.879,121.466,-82.740,75.840
-0.454,-0.050,1.630,151.740,-88.672,92.626
-0.317,-0.018,1.431,171.931,-91.351,101.618
-0.192,0.038,1.258,187.031,-93.916,105.344
-0.094,0.065,1.144,195.908,-93.504,104.061
-0.006,0.110,1.043,201.687,-92.779,98.366
0.042,0.136,0.961,206.511,-89.305,89.107
0.068,0.170,0.902,210.321,-89.267,78.031
0.083,0.208,0.810,213.069,-88.573,60.733
0.103,0.250,0.741,213.443,-86.954,47.031
0.090,0.285,0.691,213.427,-84.901,34.496
0.083,0.329,0.628,211.847,-82.321,24.221
0.062,0.369,0.564,208.763,-79.412,15.588
0.040,0.407,0.530,203.550,-73.496,9.595
0.030,0.460,0.503,196.435,-67.611,6.092
0.032,0.513,0.483,187.183,-59.962,4.947
0.041,0.556,0.466,177.573,-52.160,6.053
0.038,0.580,0.455,168.313,-43.626,8.397
0.048,0.617,0.448,160.473,-37.496,11.374
0.059,0.646,0.440,153.695,-32.855,13.687
0.064,0.647,0.433,147.672,-28.481,15.046
0.054,0.664,0.434,142.061,-24.947,15.053
0.072,0.688,0.431,137.313,-23.931,14.679
0.079,0.710,0.424,134.481,-21.824,14.718
0.089,0.717,0.398,132.305,-20.366,15.145
0.100,0.738,0.404,129.519,-20.802,15.840
0.096,0.744,0.381,126.924,-24.595,16.374
0.103,0.746,0.359,124.382,-28.061,16.168
0.106,0.762,0.345,121.389,-29.275,14.733
0.106,0.769,0.343,117.580,-28.420,12.076
0.107,0.795,0.305,112.740,-28.160,8.542
0.101,0.817,0.303,108.137,-27.450,6.649
0.109,0.823,0.281,103.748,-25.771,5.916
0.116,0.835,0.260,100.168,-21.641,6.481
0.111,0.847,0.243,96.420,-18.649,7.130
0.119,0.850,0.250,92.489,-16.038,7.763
0.117,0.861,0.227,88.359,-13.763,7.458
0.112,0.863,0.233,84.649,-12.206,7.267
0.121,0.874,0.226,80.802,-12.160,6.725
0.126,0.883,0.209,78.298,-12.130,6.496
0.125,0.889,0.198,75.870,-12.397,5.672
0.133,0.886,0.199,73.359,-12.321,4.939
0.122,0.890,0.198,69.992,-13.962,4.450
0.115,0.899,0.184,66.351,-15.557,3.679
0.125,0.913,0.181,61.710,-14.931,3.443
0.131,0.912,0.178,56.466,-11.260,3.634
0.122,0.921,0.166,50.160,-9.504,3.992
0.127,0.930,0.173,44.969,-9.740,4.710
0.140,0.934,0.183,40.191,-7.351,5.756
0.132,0.943,0.179,34.863,-6.763,5.748
0.144,0.940,0.184,31.573,-7.977,7.084
0.137,0.937,0.190,29.580,-9.153,7.305
0.140,0.936,0.203,27.672,-11.069,6.748
0.145,0.934,0.199,26.023,-14.153,6.519
0.159,0.930,0.185,24.748,-15.275,6.061
0.166,0.929,0.174,24.252,-13.779,5.076
0.165,0.933,0.164,23.389,-10.855,3.710
0.161,0.933,0.171,22.099,-8.344,2.901
0.169,0.945,0.172,20.641,-7.977,2.519
0.169,0.943,0.167,19.313,-8.649,2.191
0.170,0.941,0.167,18.267,-8.901,1.664
0.177,0.938,0.167,17.435,-6.496,1.366
0.172,0.946,0.167,15.809,-2.588,0.664
0.168,0.943,0.168,13.863,-1.405,-0.313
0.170,0.945,0.176,11.817,-4.405,-1.389
0.171,0.946,0.171,10.420,-5.672,-2.084
0.174,0.954,0.167,9.420,-2.763,-2.939
0.166,0.955,0.176,8.756,-0.809,-2.450
0.160,0.955,0.184,8.573,-0.557,-2.405
0.144,0.956,0.174,8.557,-1.328,-1.580
0.145,0.951,0.181,8.779,-1.580,-0.924
0.148,0.957,0.166,8.802,-0.359,-0.290
0.144,0.959,0.175,8.328,-0.405,0.634
0.146,0.954,0.158,7.099,-1.221,1.550
0.158,0.955,0.159,5.374,-0.015,2.649
0.165,0.961,0.161,3.863,1.733,3.344
0.163,0.954,0.174,2.550,0.794,3.176
0.169,0.943,0.190,0.420,0.046,2.550
0.165,0.945,0.195,-0.420,-0.099,0.588
0.163,0.944,0.196,0.542,0.221,-1.145
0.167,0.948,0.200,2.679,0.489,-2.366
0.172,0.947,0.208,4.832,0.954,-2.718
0.160,0.953,0.203,6.099,1.313,-2.603
0.160,0.960,0.210,7.267,1.214,-2.214
0.150,0.963,0.199,7.443,-0.290,-1.664
0.152,0.965,0.194,7.008,-1.542,-1.015
0.149,0.970,0.189,6.023,-2.344,0.122
0.154,0.971,0.181,5.183,-2.840,1.130
0.154,0.964,0.170,4.351,-2.076,1.664
0.158,0.960,0.164,3.420,-0.863,1.985
0.157,0.955,0.157,2.191,0.885,2.153
0.159,0.955,0.171,1.267,1.679,2.168
0.161,0.950,0.158,-0.214,2.580,1.832
0.164,0.955,0.164,-1.260,3.206,1.344
0.159,0.957,0.167,-1.420,3.779,0.679
0.154,0.954,0.163,-1.290,4.275,0.481

0.078,0.830,-0.910,-162.489,-18.305,10.656
0.120,0.747,-1.065,-219.718,-7.137,17.641
0.171,0.598,-1.144,-250.137,30.649,24.725
0.179,0.390,-1.084,-250.137,88.542,23.908
0.148,0.110,-0.884,-250.137,131.763,9.664
0.144,-0.095,-0.576,-250.137,161.130,-14.115
0.180,-0.226,-0.248,-250.137,204.649,-38.824
0.200,-0.246,0.085,-250.137,250.130,-57.092
0.191,-0.244,0.401,-250.137,250.130,-72.496
-0.061,-0.354,1.003,-250.137,250.130,-86.053
-0.230,-0.369,1.439,-250.137,250.130,-98.313
-0.374,-0.388,1.810,-250.137,250.130,-106.519
-0.524,-0.377,2.000,-250.137,231.191,-107.649
-0.681,-0.369,2.000,-250.137,197.901,-99.634
-0.837,-0.348,2.000,-213.107,159.939,-84.588
-0.974,-0.284,2.000,-134.748,114.191,-64.076
-1.048,-0.238,2.000,-65.046,51.649,-39.168
-1.033,-0.206,2.000,-5.511,-9.046,-9.542
-0.898,-0.151,2.000,50.168,-52.947,26.260
-0.748,-0.147,2.000,90.504,-70.954,56.321
-0.624,-0.132,1.912,119.672,-80.366,78.053
-0.471,-0.082,1.690,146.863,-89.061,95.794
-0.328,-0.047,1.483,168.137,-94.160,106.450
-0.188,-0.006,1.315,184.832,-94.496,111.595
-0.082,0.041,1.165,198.214,-96.260,111.229
-0.009,0.073,1.060,207.359,-95.733,106.397
0.044,0.105,0.956,214.679,-98.595,97.847
0.099,0.159,0.848,219.870,-101.809,85.076
0.112,0.208,0.781,221.908,-102.763,69.374
0.130,0.240,0.708,221.420,-100.802,56.702
0.139,0.283,0.618,219.878,-98.412,44.863
0.138,0.318,0.568,216.672,-92.977,33.611
0.142,0.363,0.520,211.756,-86.817,23.878
0.125,0.413,0.490,204.656,-76.198,15.099
0.101,0.461,0.455,194.962,-65.214,7.794
0.091,0.505,0.429,183.122,-54.954,3.084
0.079,0.545,0.419,172.153,-47.557,1.802
0.066,0.584,0.413,159.252,-40.588,1.992
0.072,0.617,0.430,147.618,-36.573,3.885
0.090,0.652,0.420,133.534,-32.779,6.687
0.100,0.664,0.423,123.947,-28.779,8.588
0.112,0.681,0.426,116.137,-26.176,9.351
0.112,0.692,0.434,110.588,-25.389,9.099
0.130,0.687,0.437,105.832,-22.580,7.328
0.123,0.700,0.439,101.763,-20.595,4.710
0.128,0.722,0.439,98.519,-19.634,2.496
0.120,0.731,0.422,96.618,-18.779,0.969
0.128,0.759,0.422,96.053,-15.863,0.916
0.131,0.772,0.411,96.794,-11.565,1.481
0.117,0.781,0.412,97.305,-8.763,2.191
0.100,0.790,0.403,96.947,-9.351,1.954
0.096,0.798,0.403,95.977,-12.832,1.687
0.098,0.804,0.384,94.550,-15.840,2.015
0.098,0.821,0.376,92.740,-19.145,2.160
0.099,0.833,0.345,90.618,-24.137,2.061
0.113,0.837,0.320,87.901,-27.153,2.649
0.125,0.845,0.297,84.618,-23.962,3.145
0.115,0.866,0.286,80.763,-23.176,3.130
0.116,0.870,0.262,77.008,-23.985,3.321
0.130,0.883,0.247,73.107,-21.267,3.809
0.136,0.888,0.235,68.397,-18.489,4.710
0.148,0.883,0.229,63.351,-14.061,5.794
0.145,0.891,0.240,56.977,-11.130,6.336
0.150,0.894,0.231,52.351,-14.214,5.855
0.156,0.886,0.216,47.908,-17.107,5.473
0.165,0.888,0.219,43.542,-18.412,4.198
0.166,0.894,0.208,39.603,-19.061,2.695
0.180,0.904,0.197,35.198,-16.847,0.687
0.179,0.914,0.192,30.992,-13.924,-1.405
0.182,0.920,0.192,26.809,-10.809,-3.435
0.194,0.917,0.191,22.740,-5.038,-4.855
0.178,0.913,0.203,19.107,-0.061,-6.366
0.155,0.909,0.214,16.115,-0.466,-8.046
0.151,0.907,0.223,14.183,-0.977,-8.870
0.151,0.908,0.234,12.817,-0.863,-9.130
0.146,0.918,0.227,11.580,-0.557,-8.832
0.133,0.921,0.239,10.763,-0.664,-8.756
0.141,0.929,0.246,9.992,-0.618,-8.618
0.136,0.933,0.248,9.473,0.962,-8.504
0.111,0.929,0.262,9.244,0.191,-8.092
0.124,0.940,0.255,9.420,-1.687,-6.634
0.121,0.930,0.265,10.588,-1.397,-3.809
0.123,0.927,0.261,11.573,-0.565,-1.260
0.118,0.930,0.275,11.756,-2.710,0.160
0.129,0.927,0.277,11.008,-6.176,1.557
0.139,0.925,0.263,11.023,-6.809,2.046
0.142,0.919,0.260,11.260,-7.382,1.206
0.149,0.917,0.254,10.809,-9.214,0.313
0.160,0.923,0.255,10.366,-9.305,-0.473
0.154,0.917,0.243,10.786,-7.603,-0.656
0.155,0.916,0.234,11.198,-6.939,-1.244
0.151,0.909,0.231,11.786,-8.023,-1.641
0.148,0.920,0.218,12.084,-10.038,-1.603
0.161,0.926,0.207,11.656,-11.618,-1.519
0.170,0.933,0.190,10.527,-12.298,-1.153
0.176,0.941,0.181,8.893,-12.305,-0.969
0.187,0.944,0.151,5.809,-11.847,-0.290
0.193,0.946,0.148,1.794,-9.275,0.145
0.201,0.954,0.146,-3.557,-5.328,0.351
0.208,0.950,0.144,-9.061,-0.435,-0.153
0.211,0.942,0.149,-14.779,4.687,-1.145
0.206,0.931,0.188,-21.000,10.908,-1.435
0.211,0.924,0.219,-24.802,14.893,-1.763
0.196,0.925,0.254,-26.710,15.473,-2.962
0.188,0.921,0.296,-26.412,14.687,-4.977
0.188,0.918,0.318,-24.328,14.679,-7.282
0.176,0.925,0.344,-21.092,15.015,-8.962
0.162,0.927,0.348,-17.420,15.901,-10.275
0.147,0.934,0.370,-13.389,15.748,-10.985
0.129,0.935,0.388,-10.191,14.763,-11.183
0.114,0.936,0.399,-7.504,13.366,-10.344
0.099,0.945,0.391,-5.282,11.176,-8.702
0.099,0.945,0.390,-3.328,7.725,-6.466
0.085,0.940,0.387,-0.969,4.336,-3.786
0.084,0.935,0.386,2.763,1.588,-0.611
0.091,0.934,0.375,6.053,-0.924,1.878
0.104,0.933,0.355,9.160,-2.221,4.061
0.105,0.921,0.335,11.565,-3.069,5.130
0.116,0.913,0.320,12.992,-3.916,5.618

0.225,0.924,-0.609,-123.130,11.588,2.565
0.216,0.828,-0.654,-176.603,21.924,0.466
0.240,0.760,-0.693,-222.023,31.679,-4.656
0.277,0.630,-0.687,-250.137,53.359,-13.939
0.263,0.503,-0.586,-250.137,74.511,-25.794
0.253,0.375,-0.480,-250.137,88.099,-39.000
0.260,0.268,-0.372,-250.137,103.344,-51.740
0.229,0.190,-0.241,-250.137,124.641,-64.565
0.203,0.106,-0.101,-250.137,147.725,-75.573
0.144,0.039,0.058,-250.137,170.718,-86.626
0.044,0.001,0.271,-250.137,194.893,-100.221
-0.027,-0.006,0.494,-250.137,206.504,-111.053
-0.142,-0.043,0.779,-250.137,201.115,-116.481
-0.237,-0.075,1.084,-250.137,191.115,-117.916
-0.323,-0.094,1.386,-250.137,188.748,-117.870
-0.425,-0.153,1.633,-250.137,188.221,-115.145
-0.610,-0.226,1.914,-250.137,174.817,-106.008
-0.729,-0.236,2.000,-250.137,147.244,-93.061
-0.809,-0.235,2.000,-227.153,116.389,-75.794
-0.866,-0.232,2.000,-154.412,81.962,-56.489
-0.883,-0.204,2.000,-84.916,42.412,-35.878
-0.867,-0.158,2.000,-21.496,-0.107,-10.977
-0.811,-0.147,2.000,31.351,-32.733,12.718
-0.686,-0.134,1.981,80.244,-58.092,39.420
-0.591,-0.137,1.786,108.595,-69.725,54.840
-0.490,-0.102,1.597,131.130,-76.115,65.641
-0.373,-0.052,1.409,149.885,-78.649,73.107
-0.254,-0.000,1.261,163.802,-76.130,77.282
-0.179,0.044,1.145,171.160,-73.595,77.679
-0.124,0.082,1.045,176.611,-71.229,75.198
-0.083,0.116,0.977,181.038,-71.328,70.397
-0.040,0.154,0.877,184.527,-72.450,62.504
-0.013,0.198,0.802,185.962,-72.176,54.656
0.012,0.235,0.745,186.458,-71.084,45.924
0.017,0.264,0.718,184.832,-67.931,37.160
0.014,0.304,0.659,182.176,-62.954,28.099
-0.002,0.345,0.623,177.282,-56.985,18.244
-0.016,0.390,0.603,170.725,-53.069,9.947
-0.031,0.433,0.582,164.229,-50.756,5.641
-0.042,0.463,0.574,157.092,-48.786,4.679
-0.062,0.502,0.546,151.817,-46.672,5.733
-0.053,0.528,0.515,146.542,-40.115,8.168
-0.044,0.563,0.516,140.603,-29.107,12.137
-0.037,0.587,0.512,132.359,-16.405,16.061
-0.040,0.625,0.530,123.542,-9.053,19.290
-0.043,0.634,0.542,115.458,-7.611,21.847
-0.042,0.638,0.570,109.183,-11.153,23.435
-0.037,0.645,0.574,104.107,-15.069,24.031
-0.025,0.643,0.582,99.473,-18.198,24.405
0.000,0.663,0.588,95.458,-20.282,24.191
0.024,0.658,0.583,93.038,-19.802,23.794
0.038,0.652,0.594,92.626,-20.427,22.771
0.054,0.656,0.581,93.534,-20.931,21.046
0.062,0.667,0.559,95.061,-20.282,17.588
0.078,0.675,0.548,95.656,-19.733,14.038
0.068,0.703,0.534,95.901,-19.328,10.931
0.071,0.713,0.506,95.832,-19.626,8.427
0.070,0.730,0.483,95.168,-20.771,6.580
0.067,0.747,0.475,92.992,-21.786,5.481
0.072,0.766,0.457,90.313,-20.611,5.061
0.071,0.780,0.429,86.099,-19.893,4.962
0.064,0.791,0.422,82.069,-18.695,4.802
0.073,0.795,0.430,78.649,-13.855,4.885
0.060,0.807,0.420,75.573,-13.748,4.588
0.057,0.813,0.413,74.908,-17.305,4.985
0.051,0.821,0.404,74.031,-19.710,5.641
0.049,0.821,0.396,74.023,-22.580,6.252
0.070,0.834,0.366,73.878,-22.679,7.427
0.067,0.837,0.352,72.168,-22.931,9.046
0.064,0.842,0.336,69.840,-23.061,9.389
0.093,0.852,0.320,66.779,-21.382,8.756
0.085,0.856,0.316,62.290,-19.092,7.649
0.100,0.863,0.314,58.061,-17.779,6.511
0.093,0.869,0.302,54.069,-14.969,5.359
0.081,0.871,0.294,50.702,-15.473,3.405
0.086,0.873,0.300,47.664,-14.168,2.336
0.087,0.887,0.298,44.160,-11.725,1.557
0.080,0.884,0.293,40.702,-10.870,1.603
0.090,0.890,0.299,38.252,-8.802,2.267
0.087,0.886,0.304,36.160,-5.969,1.985
0.086,0.902,0.308,34.214,-3.733,2.061
0.073,0.900,0.305,32.466,-6.214,2.198
0.089,0.913,0.305,31.695,-7.458,3.115
0.077,0.907,0.295,31.313,-7.115,3.504
0.073,0.907,0.307,29.977,-7.183,3.099
0.084,0.913,0.310,28.130,-8.771,3.206
0.097,0.914,0.301,27.481,-8.641,3.985
0.085,0.918,0.288,27.710,-7.099,4.183
0.079,0.917,0.291,27.443,-5.672,3.863
0.078,0.929,0.293,26.534,-6.595,3.824
0.078,0.927,0.274,25.901,-6.023,4.977
0.084,0.928,0.272,25.519,-3.962,6.916
0.084,0.925,0.279,23.794,-4.122,8.817
0.094,0.920,0.275,21.718,-4.260,10.466
0.107,0.933,0.271,21.015,-1.466,11.298
0.120,0.920,0.273,21.191,0.542,10.458
0.112,0.930,0.280,21.069,-1.389,8.840
0.118,0.924,0.284,20.511,-5.092,7.901
0.126,0.920,0.267,20.359,-7.008,7.840
0.135,0.922,0.264,20.641,-6.374,7.847
0.137,0.926,0.254,20.496,-5.336,8.374
0.138,0.927,0.235,19.962,-3.863,8.229
0.146,0.929,0.232,18.397,-2.916,8.626
0.149,0.928,0.236,15.595,-1.580,8.527
0.149,0.931,0.241,13.038,0.023,8.168
0.159,0.929,0.245,11.000,-0.099,7.183
0.158,0.919,0.249,9.870,-0.847,5.855
0.165,0.915,0.247,9.603,-0.053,3.969
0.163,0.912,0.244,9.511,2.160,1.977
0.155,0.917,0.258,9.496,3.099,-0.153
0.150,0.921,0.257,9.397,2.672,-2.130
0.143,0.920,0.248,9.641,2.038,-3.260
0.143,0.934,0.249,9.336,1.664,-3.122
0.133,0.941,0.241,8.802,2.015,-2.626
0.125,0.944,0.239,8.313,2.290,-1.664
0.114,0.957,0.229,7.656,2.084,-0.168
0.121,0.956,0.232,7.176,2.206,1.198
0.127,0.955,0.223,6.489,2.595,2.351
0.128,0.949,0.225,5.366,2.733,3.321

-0.206,-0.207,1.443,-250.137,229.015,-56.107
-0.334,-0.236,1.735,-250.137,229.855,-70.748
-0.526,-0.251,2.000,-250.137,209.252,-76.038
-0.670,-0.217,2.000,-250.137,167.695,-71.763
-0.755,-0.177,2.000,-176.740,111.473,-57.069
-0.815,-0.157,2.000,-107.427,62.687,-38.603
-0.830,-0.146,2.000,-45.863,22.038,-18.878
-0.806,-0.120,2.000,7.954,-12.710,1.962
-0.739,-0.096,2.000,52.840,-39.542,23.084
-0.602,-0.069,1.865,97.527,-56.626,48.519
-0.498,-0.043,1.672,125.267,-61.840,66.382
-0.376,0.016,1.499,146.191,-64.191,80.969
-0.270,0.058,1.360,161.115,-65.550,90.389
-0.175,0.088,1.244,171.969,-67.718,95.557
-0.098,0.123,1.124,180.695,-72.290,95.221
-0.021,0.146,1.025,188.229,-77.031,90.641
0.030,0.193,0.940,194.351,-80.359,82.443
0.069,0.207,0.859,199.687,-82.748,72.191
0.075,0.252,0.789,205.260,-90.618,57.573
0.095,0.296,0.695,206.954,-94.099,43.351
0.087,0.330,0.626,205.221,-96.763,30.901
0.083,0.379,0.575,198.954,-96.603,18.985
0.079,0.428,0.526,190.008,-92.847,9.863
0.086,0.490,0.483,179.244,-86.969,3.550
0.091,0.530,0.457,167.214,-75.901,0.366
0.087,0.564,0.417,155.611,-62.321,-1.489
0.079,0.595,0.406,144.962,-49.863,-1.779
0.058,0.640,0.390,133.847,-38.473,-1.450
0.037,0.650,0.400,123.427,-30.427,-0.710
0.031,0.681,0.405,114.389,-26.504,1.061
0.025,0.700,0.414,104.603,-25.740,3.802
0.025,0.706,0.425,97.321,-26.191,5.771
0.030,0.725,0.421,90.931,-27.031,7.534
0.035,0.731,0.428,85.908,-26.450,9.244
0.051,0.745,0.434,81.382,-22.305,10.183
0.065,0.756,0.448,78.466,-18.282,10.763
0.079,0.753,0.455,76.687,-13.695,11.046
0.076,0.751,0.468,76.221,-11.099,10.687
0.078,0.750,0.466,76.985,-10.649,9.229
0.082,0.754,0.459,78.076,-11.450,7.588
0.078,0.755,0.452,78.542,-13.053,5.733
0.073,0.770,0.449,78.137,-14.466,3.733
0.072,0.789,0.430,75.931,-15.427,2.153
0.082,0.800,0.425,73.313,-15.969,1.191
0.080,0.806,0.412,70.122,-14.771,1.115
0.079,0.823,0.404,66.405,-12.687,1.710
0.074,0.831,0.400,63.458,-12.084,2.229
0.074,0.839,0.408,60.168,-12.328,2.756
0.073,0.838,0.395,57.595,-11.901,2.817
0.083,0.852,0.396,55.977,-10.725,3.901
0.080,0.856,0.394,55.015,-10.870,4.069
0.074,0.855,0.393,53.557,-11.916,4.634
0.092,0.855,0.385,52.557,-11.397,5.267
0.086,0.866,0.366,51.992,-12.168,5.763
0.090,0.864,0.351,51.321,-13.977,6.847
0.099,0.868,0.344,50.351,-15.389,8.107
0.106,0.869,0.342,48.908,-15.046,8.847
0.106,0.867,0.334,47.038,-15.076,8.237
0.108,0.878,0.325,44.672,-16.947,7.000
0.131,0.879,0.309,42.695,-17.794,6.260
0.131,0.885,0.298,41.405,-16.496,5.679
0.140,0.889,0.297,40.504,-15.130,5.366
0.136,0.884,0.283,39.137,-13.489,4.992
0.141,0.896,0.298,36.969,-10.550,4.550
0.141,0.896,0.298,34.924,-8.450,3.893
0.137,0.896,0.295,33.656,-6.389,3.679
0.131,0.896,0.297,33.008,-7.122,3.282
0.130,0.904,0.305,32.908,-10.557,3.183
0.128,0.903,0.298,33.107,-13.977,3.092
0.144,0.897,0.288,33.565,-15.504,3.328
0.147,0.917,0.271,33.802,-14.748,3.473
0.152,0.910,0.265,33.084,-12.603,2.977
0.144,0.910,0.262,32.107,-10.176,2.832
0.142,0.918,0.275,30.664,-9.847,2.649
0.144,0.911,0.258,30.069,-10.977,2.611
0.137,0.924,0.248,29.794,-11.221,2.695
0.146,0.933,0.241,29.542,-10.328,2.527
0.134,0.930,0.237,29.412,-8.649,2.542
0.122,0.933,0.235,28.977,-7.015,3.519
0.119,0.943,0.224,28.137,-6.573,5.099
0.121,0.943,0.206,27.069,-6.786,7.328
0.125,0.948,0.204,25.534,-6.198,9.359
0.125,0.943,0.213,23.092,-7.122,10.771
0.141,0.941,0.204,20.267,-8.718,11.435
0.147,0.929,0.198,17.748,-8.565,10.748
0.157,0.930,0.194,15.687,-7.221,9.725
0.174,0.928,0.194,14.069,-5.397,8.588
0.182,0.927,0.187,12.649,-3.763,7.710
0.178,0.921,0.183,11.489,-2.290,6.656
0.181,0.925,0.189,10.061,-1.282,5.214
0.183,0.923,0.187,8.748,-0.618,4.252
0.183,0.931,0.179,7.489,0.099,3.237
0.186,0.936,0.186,6.122,0.695,2.794
0.188,0.939,0.185,4.160,1.290,2.588
0.197,0.932,0.184,2.153,2.382,1.641
0.196,0.940,0.186,0.031,4.824,0.832
0.190,0.941,0.200,-1.809,6.489,0.046
0.181,0.930,0.209,-3.473,7.237,-0.893
0.172,0.936,0.225,-4.603,7.756,-1.557
0.159,0.944,0.233,-5.160,7.626,-1.901
0.159,0.942,0.239,-5.069,6.725,-1.786
0.151,0.947,0.230,-4.176,5.924,-0.840
0.142,0.950,0.238,-3.267,5.336,0.557
0.140,0.954,0.243,-2.412,4.733,2.855
0.140,0.958,0.246,-1.992,3.908,4.931
0.153,0.948,0.240,-1.634,3.237,6.504
0.158,0.939,0.246,-1.244,3.061,7.847
0.174,0.932,0.240,-0.916,3.489,8.420
0.187,0.930,0.247,-0.496,4.290,8.229
0.194,0.923,0.245,0.260,4.313,7.038
0.196,0.917,0.247,0.847,4.580,4.458
0.195,0.917,0.246,1.122,3.939,2.382
0.194,0.921,0.241,0.969,3.321,0.153
0.188,0.935,0.238,1.282,2.023,-1.336
0.185,0.934,0.233,1.496,1.336,-2.053
0.188,0.942,0.229,1.939,1.847,-2.130
0.184,0.943,0.225,2.344,2.947,-1.344
0.185,0.942,0.219,2.298,2.977,-0.664
0.185,0.937,0.220,1.489,3.115,0.191

0.374,0.813,-0.656,-80.053,-107.435,-8.420
0.468,0.789,-0.816,-113.405,-70.336,-10.122
0.520,0.648,-0.977,-163.511,5.504,-14.832
0.466,0.509,-1.056,-222.015,98.023,-30.992
0.384,0.348,-0.967,-250.137,208.389,-65.794
0.208,0.082,-0.673,-250.137,250.130,-112.145
0.067,-0.028,-0.341,-250.137,250.130,-152.527
-0.042,-0.121,-0.032,-250.137,250.130,-184.252
-0.183,-0.204,0.294,-250.137,250.130,-200.947
-0.337,-0.213,0.628,-250.137,250.130,-201.863
-0.512,-0.281,1.008,-250.137,234.565,-189.817
-0.610,-0.159,1.414,-250.137,195.260,-171.351
-0.694,-0.104,1.781,-250.137,164.656,-147.366
-0.812,-0.097,2.000,-250.137,154.595,-127.924
-0.977,-0.083,2.000,-250.137,144.244,-107.870
-1.145,-0.071,2.000,-167.115,108.137,-80.298
-1.207,-0.038,2.000,-86.878,63.359,-48.290
-1.187,-0.022,2.000,-20.573,15.580,-9.656
-1.131,-0.018,2.000,24.198,-25.290,25.511
-1.000,-0.005,2.000,58.374,-59.771,55.718
-0.835,-0.018,1.854,87.618,-83.595,79.244
-0.646,-0.005,1.631,113.435,-93.649,96.427
-0.478,0.024,1.447,135.557,-90.878,108.275
-0.309,0.051,1.266,155.458,-84.191,116.580
-0.200,0.080,1.131,171.481,-76.840,118.458
-0.112,0.119,1.024,181.878,-73.809,113.298
-0.039,0.164,0.937,187.878,-73.061,104.725
-0.011,0.199,0.861,191.718,-74.069,94.748
0.020,0.239,0.803,194.031,-74.359,83.473
0.038,0.267,0.735,195.137,-73.473,70.710
0.037,0.317,0.663,194.137,-71.802,57.847
0.038,0.365,0.610,188.985,-65.931,44.641
0.013,0.427,0.590,181.145,-60.863,34.489
0.010,0.461,0.566,173.496,-58.237,27.427
-0.002,0.506,0.531,163.511,-54.786,22.305
-0.009,0.548,0.507,155.168,-48.985,20.412
-0.003,0.588,0.489,147.061,-40.565,20.985
-0.005,0.625,0.472,140.725,-32.191,22.969
0.010,0.647,0.470,134.779,-27.206,25.626
0.005,0.672,0.469,128.977,-26.679,27.908
-0.001,0.681,0.450,124.344,-28.198,29.145
0.015,0.696,0.445,118.641,-29.733,30.534
0.023,0.707,0.434,114.038,-29.817,31.374
0.041,0.720,0.430,109.008,-29.802,31.344
0.051,0.736,0.427,104.237,-30.015,30.229
0.066,0.746,0.418,99.977,-30.305,29.137
0.078,0.752,0.414,97.260,-30.504,27.939
0.094,0.754,0.406,95.496,-28.420,26.618
0.095,0.762,0.390,93.107,-26.916,24.084
0.090,0.773,0.374,90.275,-26.015,21.550
0.101,0.776,0.365,86.779,-27.313,19.214
0.105,0.791,0.356,82.282,-28.023,16.939
0.110,0.804,0.353,77.496,-28.672,14.695
0.109,0.817,0.323,73.550,-27.359,12.542
0.124,0.831,0.314,69.786,-24.954,10.962
0.110,0.830,0.307,65.779,-23.214,9.321
0.128,0.850,0.309,62.931,-21.855,8.084
0.116,0.858,0.300,60.443,-21.275,6.931
0.113,0.853,0.283,58.374,-20.687,5.702
0.111,0.856,0.280,56.038,-19.420,4.771
0.109,0.869,0.271,53.046,-17.137,4.534
0.095,0.880,0.270,48.924,-16.328,4.534
0.108,0.885,0.259,45.687,-15.145,4.710
0.105,0.898,0.268,42.695,-14.565,5.008
0.099,0.896,0.266,40.000,-16.160,4.893
0.112,0.899,0.243,37.168,-15.229,5.481
0.115,0.897,0.249,34.366,-13.115,5.336
0.119,0.900,0.258,31.267,-11.336,5.008
0.126,0.889,0.245,28.092,-9.115,4.191
0.133,0.901,0.266,24.992,-4.969,3.290
0.123,0.905,0.276,22.527,-3.672,2.191
0.114,0.898,0.273,20.863,-4.611,1.198
0.128,0.911,0.283,20.176,-3.931,0.786
0.120,0.906,0.285,19.977,-5.107,0.817
0.111,0.911,0.289,19.588,-6.924,0.870
0.111,0.915,0.290,19.130,-7.641,0.878
0.116,0.918,0.282,18.450,-5.878,0.908
0.117,0.916,0.281,17.740,-3.382,1.321
0.119,0.922,0.297,17.527,-1.924,1.863
0.119,0.925,0.286,18.115,-0.977,2.748
0.113,0.924,0.302,18.435,-0.985,3.840
0.109,0.919,0.301,17.725,-4.481,4.641
0.115,0.923,0.287,16.634,-9.000,4.916
0.128,0.913,0.273,16.183,-10.244,4.641
0.138,0.919,0.268,16.099,-9.046,3.924
0.138,0.918,0.267,15.718,-6.397,2.435
0.140,0.924,0.253,15.092,-3.481,0.916
0.139,0.932,0.260,14.313,-0.802,-0.496
0.125,0.929,0.263,13.626,0.557,-1.031
0.118,0.925,0.268,12.840,-0.588,-1.084
0.113,0.933,0.269,12.282,-1.992,-0.427
0.119,0.934,0.250,12.405,-1.519,0.977
0.120,0.932,0.246,12.550,-1.718,2.321
0.124,0.941,0.251,11.580,-2.679,3.206
0.128,0.934,0.243,10.382,-4.740,4.252
0.143,0.940,0.240,8.954,-4.832,4.237
0.155,0.931,0.225,7.550,-1.664,3.420
0.157,0.933,0.228,6.718,0.603,2.458
0.148,0.934,0.219,5.603,1.885,1.901
0.148,0.934,0.232,4.580,2.824,1.550
0.149,0.936,0.226,3.550,3.221,1.145
0.142,0.941,0.226,2.534,3.519,1.733
0.144,0.942,0.227,1.809,3.427,2.603
0.153,0.931,0.228,1.130,4.473,3.473
0.149,0.937,0.244,0.359,5.809,3.420
0.150,0.925,0.244,-0.748,6.000,3.160
0.159,0.930,0.260,-1.603,5.718,2.053
0.155,0.926,0.258,-1.321,7.427,1.290
0.152,0.932,0.269,-0.473,8.137,0.099
0.136,0.928,0.275,0.282,6.092,-0.290
0.146,0.930,0.276,1.382,2.954,0.061
0.154,0.936,0.261,3.756,3.046,0.626
0.145,0.929,0.263,5.275,1.840,0.603
0.147,0.938,0.262,5.550,-0.145,0.847
0.154,0.935,0.245,4.992,-0.565,0.893
0.151,0.940,0.237,4.527,0.244,0.481
0.153,0.935,0.243,3.870,1.069,0.038
0.156,0.940,0.233,2.832,1.893,-0.137
0.151,0.938,0.238,1.893,3.427,-0.389

0.116,0.849,-0.833,-89.786,-79.366,3.595
0.194,0.865,-1.015,-148.107,-71.840,11.794
0.214,0.623,-1.172,-219.115,-35.557,21.595
0.279,0.446,-1.260,-250.137,26.267,29.412
0.290,0.165,-1.213,-250.137,97.405,18.542
0.284,-0.045,-0.944,-250.137,172.878,-15.588
0.291,-0.233,-0.618,-250.137,234.702,-54.000
0.274,-0.327,-0.185,-250.137,250.130,-89.931
0.180,-0.361,0.246,-250.137,250.130,-117.725
-0.127,-0.502,0.870,-250.137,250.130,-134.626
-0.277,-0.537,1.201,-250.137,250.130,-144.794
-0.443,-0.497,1.631,-250.137,250.130,-154.397
-0.677,-0.441,2.000,-250.137,250.130,-156.641
-0.967,-0.455,2.000,-250.137,250.130,-149.855
-1.153,-0.300,2.000,-233.336,230.473,-134.824
-1.312,-0.220,2.000,-147.382,151.664,-113.443
-1.389,-0.203,2.000,-72.794,72.832,-84.542
-1.349,-0.157,2.000,-10.435,2.473,-47.916
-1.235,-0.135,2.000,40.160,-56.115,-7.015
-1.056,-0.126,2.000,80.321,-86.916,32.702
-0.894,-0.135,1.897,110.977,-94.947,66.763
-0.742,-0.125,1.696,131.519,-102.771,89.511
-0.593,-0.108,1.503,147.336,-107.305,104.840
-0.437,-0.076,1.345,160.023,-105.763,114.626
-0.310,-0.016,1.198,169.626,-99.687,119.206
-0.177,0.035,1.080,178.244,-92.389,119.641
-0.113,0.073,1.004,183.282,-87.695,115.237
-0.054,0.121,0.923,187.817,-87.519,105.450
-0.015,0.160,0.852,190.870,-89.802,93.305
0.020,0.208,0.790,192.763,-93.244,81.153
0.042,0.240,0.729,194.115,-93.336,68.504
0.049,0.280,0.663,194.328,-89.595,55.847
0.045,0.310,0.634,193.244,-86.641,43.824
0.047,0.368,0.602,190.733,-78.382,32.427
0.042,0.407,0.557,187.382,-67.588,22.061
-0.005,0.443,0.524,183.504,-54.931,13.458
-0.019,0.482,0.502,179.122,-46.344,9.015
-0.044,0.520,0.495,174.061,-41.779,7.649
-0.063,0.567,0.478,166.985,-37.557,8.496
-0.070,0.622,0.454,157.947,-32.878,10.397
-0.071,0.638,0.458,148.305,-29.626,14.092
-0.063,0.650,0.435,137.496,-26.573,19.015
-0.052,0.695,0.435,125.748,-22.450,24.588
-0.025,0.724,0.451,114.672,-19.901,29.756
-0.015,0.731,0.452,106.679,-18.847,33.397
-0.010,0.731,0.459,101.252,-19.702,35.366
0.019,0.732,0.466,97.588,-19.939,36.511
0.025,0.733,0.462,96.771,-20.015,36.954
0.054,0.732,0.458,97.885,-19.679,36.840
0.075,0.733,0.455,99.573,-19.038,36.908
0.079,0.747,0.443,101.053,-18.031,36.031
0.100,0.743,0.437,101.771,-16.450,34.641
0.098,0.753,0.435,100.718,-17.702,31.618
0.117,0.769,0.428,98.885,-18.015,29.863
0.112,0.785,0.408,97.252,-19.366,27.656
0.112,0.787,0.385,96.046,-21.092,25.817
0.118,0.800,0.375,95.023,-21.878,23.931
0.115,0.806,0.363,93.611,-23.160,22.290
0.120,0.813,0.350,91.405,-24.252,21.282
0.114,0.813,0.356,88.565,-25.282,19.473
0.114,0.831,0.340,84.260,-25.084,17.450
0.131,0.835,0.319,81.183,-24.603,16.023
0.120,0.859,0.315,77.557,-25.084,14.878
0.131,0.857,0.297,75.122,-26.725,14.107
0.147,0.858,0.269,73.252,-25.206,13.809
0.139,0.871,0.261,71.137,-24.466,13.382
0.144,0.880,0.241,67.931,-24.099,12.053
0.148,0.886,0.228,64.763,-22.939,11.053
0.149,0.879,0.219,61.176,-23.023,9.931
0.145,0.883,0.217,56.649,-22.824,8.198
0.156,0.892,0.198,52.221,-19.382,6.725
0.153,0.908,0.199,47.870,-15.611,5.168
0.144,0.901,0.197,43.557,-13.992,3.840
0.147,0.900,0.189,39.771,-12.435,2.664
0.141,0.922,0.194,35.344,-10.855,1.153
0.129,0.925,0.182,32.023,-9.939,0.130
0.135,0.938,0.193,28.450,-8.183,-0.160
0.126,0.939,0.188,25.153,-8.954,0.420
0.131,0.943,0.200,22.130,-9.863,2.275
0.126,0.948,0.191,19.573,-10.176,4.267
0.133,0.941,0.195,17.435,-9.351,5.740
0.137,0.938,0.191,16.015,-9.145,6.534
0.151,0.942,0.200,15.107,-8.092,7.450
0.160,0.932,0.203,14.672,-6.473,7.756
0.169,0.931,0.203,14.427,-4.695,7.557
0.166,0.926,0.205,13.511,-2.756,6.779
0.173,0.922,0.227,12.573,-1.595,5.481
0.176,0.918,0.223,11.595,-1.290,3.962
0.169,0.930,0.231,10.832,-1.969,2.328
0.178,0.922,0.222,10.527,-1.786,1.031
0.171,0.921,0.215,10.794,-2.534,-0.107
0.166,0.927,0.218,11.092,-4.008,-0.985
0.169,0.930,0.217,11.573,-4.511,-1.565
0.169,0.935,0.218,11.359,-2.954,-1.504
0.169,0.936,0.207,10.771,-1.443,-1.603
0.167,0.945,0.209,10.069,0.427,-1.916
0.160,0.947,0.216,8.908,0.275,-2.389
0.160,0.944,0.211,7.664,-0.191,-2.069
0.163,0.939,0.202,6.809,1.573,-1.802
0.161,0.950,0.221,5.885,3.748,-2.092
0.146,0.942,0.218,4.489,4.000,-2.336
0.148,0.945,0.211,2.885,2.878,-2.153
0.155,0.947,0.214,1.603,2.962,-2.031
0.157,0.948,0.218,0.527,4.359,-1.427
0.148,0.946,0.227,-0.015,5.198,-1.275
0.147,0.944,0.230,-0.824,6.122,-1.603
0.148,0.946,0.233,-1.061,6.443,-1.794
0.137,0.948,0.241,-0.695,6.450,-1.786
0.138,0.948,0.250,-0.183,6.427,-1.473
0.130,0.950,0.248,0.656,6.115,-1.412
0.129,0.947,0.259,1.702,5.137,-0.573
0.125,0.948,0.257,2.534,3.565,0.351
0.134,0.952,0.245,3.443,2.260,1.939
0.143,0.953,0.236,4.351,1.550,3.489
0.157,0.948,0.232,4.695,1.481,4.588
0.154,0.948,0.224,4.511,1.214,5.084
0.167,0.947,0.221,4.344,0.351,4.939
0.168,0.939,0.231,4.115,0.023,4.733
0.170,0.938,0.221,4.023,0.794,4.344

0.281,0.846,-0.682,-66.687,-74.137,-3.916
0.342,0.842,-0.878,-108.176,-52.954,-5.000
0.368,0.764,-0.984,-165.916,-17.687,-6.031
0.374,0.683,-1.014,-250.137,60.840,-16.115
0.265,0.493,-0.936,-250.137,132.008,-34.695
0.149,0.314,-0.747,-250.137,192.901,-63.489
-0.016,0.049,-0.412,-250.137,216.374,-97.466
-0.068,-0.115,-0.121,-250.137,224.450,-108.450
-0.104,-0.184,0.210,-250.137,236.985,-106.947
-0.173,-0.197,0.628,-250.137,237.718,-100.687
-0.280,-0.191,0.990,-250.137,222.099,-97.130
-0.349,-0.131,1.442,-250.137,191.802,-92.656
-0.401,-0.097,1.756,-250.137,165.924,-88.550
-0.461,-0.106,2.000,-250.137,159.718,-86.092
-0.563,-0.108,2.000,-250.137,164.588,-83.511
-0.688,-0.051,2.000,-188.115,152.443,-73.817
-0.822,-0.033,2.000,-106.603,119.725,-55.634
-0.906,0.028,2.000,-40.168,81.160,-31.595
-0.939,0.045,2.000,8.229,39.763,-6.481
-0.910,0.057,2.000,46.160,-10.511,21.557
-0.782,0.068,2.000,75.916,-49.718,48.565
-0.617,0.097,1.799,100.489,-62.626,70.015
-0.466,0.122,1.610,123.718,-60.771,88.168
-0.358,0.131,1.454,143.641,-56.611,100.924
-0.239,0.147,1.282,166.641,-55.809,112.351
-0.158,0.171,1.168,181.542,-57.832,116.176
-0.078,0.194,1.058,193.817,-60.382,116.901
-0.034,0.205,0.943,203.000,-63.649,113.374
0.018,0.243,0.844,209.855,-67.756,106.481
0.048,0.268,0.760,213.031,-72.053,97.305
0.069,0.302,0.710,213.099,-74.191,87.519
0.091,0.347,0.642,210.305,-74.504,75.740
0.114,0.401,0.581,204.443,-72.336,63.282
0.111,0.454,0.525,195.557,-68.336,50.275
0.116,0.497,0.471,186.656,-64.252,40.023
0.117,0.540,0.444,178.046,-59.015,32.183
0.111,0.577,0.411,168.618,-52.779,25.985
0.112,0.620,0.395,159.962,-46.107,22.145
0.109,0.648,0.373,151.267,-40.374,19.557
0.104,0.685,0.345,144.267,-37.260,18.763
0.114,0.710,0.329,137.496,-34.305,19.855
0.118,0.741,0.318,130.618,-30.534,22.046
0.113,0.748,0.310,123.901,-28.458,24.237
0.136,0.769,0.317,114.290,-25.634,27.160
0.144,0.785,0.303,106.008,-22.893,27.954
0.155,0.787,0.311,98.160,-20.802,27.550
0.168,0.789,0.302,92.191,-20.206,25.786
0.176,0.794,0.300,87.870,-19.580,23.046
0.168,0.800,0.301,83.580,-20.313,19.733
0.178,0.808,0.306,79.763,-20.679,17.321
0.179,0.818,0.292,76.641,-21.366,15.260
0.184,0.828,0.290,74.023,-21.634,13.931
0.185,0.835,0.287,71.611,-21.183,12.985
0.188,0.838,0.275,69.237,-21.534,11.794
0.196,0.849,0.274,66.809,-20.634,10.099
0.187,0.855,0.268,63.893,-20.214,7.664
0.183,0.860,0.257,61.443,-20.282,4.802
0.179,0.868,0.250,58.427,-19.725,2.214
0.172,0.875,0.251,55.389,-17.931,0.229
0.174,0.878,0.238,52.763,-16.198,-0.695
0.162,0.892,0.233,50.641,-14.244,-0.855
0.166,0.897,0.242,48.435,-11.702,-0.153
0.159,0.912,0.237,45.962,-9.206,0.794
0.151,0.917,0.243,42.664,-7.565,2.206
0.160,0.926,0.252,39.962,-6.015,3.763
0.153,0.915,0.243,38.359,-6.435,4.595
0.157,0.914,0.247,37.832,-7.634,5.679
0.150,0.916,0.249,37.748,-11.733,5.580
0.149,0.912,0.246,37.084,-15.237,5.786
0.161,0.922,0.239,35.885,-15.679,6.412
0.167,0.931,0.228,34.611,-14.962,6.985
0.172,0.927,0.224,33.420,-13.908,6.992
0.176,0.931,0.218,32.450,-13.336,7.252
0.191,0.928,0.205,31.275,-13.031,7.580
0.189,0.931,0.211,29.595,-12.000,7.710
0.186,0.939,0.203,28.618,-12.687,7.130
0.198,0.928,0.190,27.740,-13.061,6.756
0.208,0.927,0.179,27.275,-11.092,6.229
0.212,0.930,0.191,26.763,-8.420,5.305
0.210,0.930,0.198,26.122,-7.031,4.214
0.196,0.932,0.198,26.176,-8.221,3.198
0.197,0.930,0.180,26.412,-9.779,2.565
0.200,0.939,0.177,26.214,-9.855,1.992
0.201,0.948,0.183,25.748,-8.840,1.962
0.195,0.950,0.165,24.565,-8.344,1.939
0.199,0.947,0.159,23.695,-8.458,2.397
0.207,0.949,0.153,22.863,-6.153,3.275
0.199,0.953,0.150,22.145,-5.366,3.878
0.205,0.954,0.157,21.336,-7.107,4.099
0.210,0.939,0.153,20.504,-8.389,4.328
0.210,0.942,0.135,19.221,-6.656,3.626
0.206,0.943,0.141,18.298,-3.603,2.344
0.206,0.956,0.135,17.664,-3.351,1.641
0.215,0.961,0.134,16.710,-4.748,1.771
0.215,0.959,0.141,15.481,-4.595,2.015
0.217,0.951,0.137,14.198,-3.947,2.000
0.214,0.951,0.128,13.275,-3.901,1.710
0.208,0.948,0.129,12.634,-4.489,1.695
0.214,0.957,0.125,11.809,-4.786,1.794
0.219,0.959,0.124,11.405,-5.092,2.244
0.214,0.952,0.123,10.519,-4.107,1.611
0.214,0.960,0.122,9.916,-2.084,0.832
0.215,0.965,0.119,8.985,-0.351,-0.069
0.210,0.953,0.119,8.427,0.160,-0.664
0.210,0.958,0.113,7.855,0.794,-0.290
0.203,0.957,0.117,7.359,2.130,0.412
0.201,0.958,0.114,6.893,1.931,0.664
0.207,0.955,0.119,6.466,0.473,1.076
0.207,0.956,0.116,6.290,-0.031,1.267
0.206,0.955,0.105,6.298,0.183,1.351
0.210,0.966,0.098,6.588,0.489,1.137
0.212,0.961,0.098,7.260,1.145,0.519
0.210,0.958,0.101,7.611,1.992,0.214
0.216,0.953,0.112,7.374,2.489,0.214
0.214,0.950,0.106,6.794,1.542,0.473
0.215,0.958,0.112,6.290,0.458,0.656
0.222,0.953,0.103,5.580,-0.786,0.939
0.216,0.960,0.109,4.603,-1.099,0.901
0.221,0.957,0.099,3.511,-0.916,0.962

0.264,0.875,-0.670,-72.733,-62.634,-36.977
0.284,0.897,-0.817,-96.855,-25.725,-36.916
0.216,0.879,-0.916,-129.969,15.214,-37.595
0.217,0.770,-1.041,-172.359,51.115,-38.588
0.255,0.689,-1.077,-231.046,91.626,-40.160
0.184,0.438,-1.005,-250.137,124.908,-48.244
0.188,0.201,-0.886,-250.137,141.435,-62.519
0.134,-0.039,-0.689,-250.137,154.099,-84.634
0.110,-0.227,-0.453,-250.137,168.244,-108.992
0.053,-0.401,-0.084,-250.137,198.733,-138.366
-0.059,-0.494,0.288,-250.137,239.817,-165.550
-0.175,-0.641,0.657,-250.137,250.130,-181.450
-0.387,-0.671,1.070,-250.137,250.130,-187.084
-0.536,-0.520,1.479,-250.137,250.130,-184.412
-0.759,-0.449,1.886,-250.137,250.130,-171.313
-0.922,-0.392,2.000,-250.137,247.870,-153.893
-1.092,-0.351,2.000,-250.137,202.374,-130.916
-1.242,-0.300,2.000,-226.977,159.954,-107.679
-1.338,-0.259,2.000,-138.244,111.702,-82.130
-1.387,-0.216,2.000,-67.855,56.786,-53.496
-1.366,-0.198,2.000,-2.374,-8.069,-16.550
-1.278,-0.170,2.000,46.817,-63.321,18.511
-1.105,-0.177,2.000,80.588,-93.649,45.550
-0.943,-0.174,1.979,108.046,-104.511,68.664
-0.792,-0.151,1.773,130.061,-111.740,87.076
-0.614,-0.113,1.531,152.092,-115.511,104.008
-0.476,-0.089,1.368,167.641,-112.000,114.183
-0.340,-0.033,1.211,180.435,-101.878,119.878
-0.257,-0.012,1.114,190.672,-92.779,122.626
-0.191,0.025,1.011,201.145,-85.542,123.000
-0.150,0.055,0.928,209.626,-86.015,120.702
-0.091,0.096,0.863,216.282,-86.351,116.718
-0.067,0.131,0.799,221.084,-85.611,111.092
-0.031,0.173,0.731,223.588,-81.885,104.130
-0.020,0.219,0.682,224.145,-79.504,95.786
-0.015,0.270,0.636,222.649,-79.397,86.397
-0.025,0.328,0.591,219.618,-82.985,76.115
-0.007,0.374,0.554,213.076,-84.679,65.084
0.005,0.434,0.520,205.557,-80.802,56.153
0.010,0.463,0.489,196.008,-73.924,48.939
0.013,0.509,0.472,184.450,-64.092,43.305
0.019,0.556,0.447,173.305,-51.771,39.191
0.011,0.592,0.427,165.618,-43.878,37.168
0.013,0.611,0.421,158.969,-38.992,36.870
0.010,0.625,0.421,153.198,-34.908,38.099
0.032,0.649,0.408,147.595,-29.611,40.603
0.048,0.686,0.399,143.153,-25.969,43.405
0.044,0.696,0.381,138.832,-24.244,45.504
0.064,0.719,0.383,135.260,-25.817,47.130
0.089,0.734,0.356,132.107,-26.893,48.260
0.106,0.745,0.348,129.427,-24.267,49.084
0.127,0.750,0.346,125.099,-19.366,49.931
0.140,0.762,0.359,122.084,-19.031,50.061
0.156,0.776,0.355,119.603,-21.679,50.992
0.171,0.777,0.339,117.588,-24.710,51.137
0.188,0.775,0.326,116.237,-29.298,49.687
0.198,0.768,0.313,114.740,-34.206,47.260
0.219,0.766,0.299,112.191,-40.466,43.962
0.236,0.781,0.275,107.611,-43.771,40.947
0.244,0.793,0.267,103.344,-45.931,38.031
0.261,0.805,0.248,98.641,-48.267,34.328
0.278,0.823,0.214,95.389,-47.580,31.000
0.283,0.829,0.197,93.511,-42.992,27.702
0.289,0.835,0.195,91.473,-38.328,23.359
0.279,0.854,0.180,88.641,-34.641,18.580
0.268,0.855,0.151,84.275,-32.878,13.817
0.262,0.860,0.149,77.969,-30.664,9.313
0.257,0.879,0.145,71.076,-30.489,6.359
0.256,0.875,0.126,63.901,-29.908,4.504
0.261,0.888,0.121,57.504,-25.290,3.901
0.254,0.906,0.114,50.641,-23.779,2.725
0.240,0.914,0.115,44.817,-25.069,1.580
0.248,0.911,0.092,39.489,-23.221,0.626
0.234,0.928,0.096,35.443,-20.260,-0.527
0.241,0.927,0.089,33.206,-16.183,-1.664
0.226,0.915,0.098,30.649,-13.618,-2.412
0.214,0.923,0.099,27.458,-11.115,-3.412
0.214,0.927,0.108,23.695,-9.649,-4.702
0.207,0.928,0.105,20.802,-9.145,-6.031
0.208,0.937,0.100,18.015,-7.397,-7.069
0.197,0.938,0.114,14.397,-5.267,-8.511
0.195,0.949,0.107,10.221,-2.389,-10.069
0.186,0.952,0.109,7.046,1.519,-11.031
0.177,0.944,0.129,4.305,4.221,-12.000
0.172,0.956,0.126,1.397,8.107,-12.015
0.158,0.962,0.144,-1.321,10.466,-11.649
0.149,0.954,0.153,-2.840,11.954,-10.550
0.147,0.962,0.160,-4.206,12.176,-9.641
0.140,0.956,0.168,-5.076,9.618,-7.763
0.137,0.961,0.180,-5.153,9.092,-5.466
0.135,0.969,0.190,-4.450,8.885,-4.153
0.137,0.969,0.193,-3.221,7.824,-2.092
0.140,0.965,0.196,-2.053,7.229,0.099
0.158,0.962,0.203,-0.557,9.000,2.702
0.164,0.955,0.214,1.107,9.130,4.924
0.171,0.946,0.215,2.344,7.443,6.550
0.179,0.953,0.217,3.122,5.947,7.779
0.191,0.947,0.219,4.229,4.832,8.305
0.208,0.939,0.223,5.435,3.351,8.450
0.215,0.930,0.209,6.656,2.053,7.672
0.224,0.939,0.196,7.519,1.664,6.603
0.226,0.936,0.203,8.267,1.962,5.267
0.223,0.937,0.190,8.534,0.435,4.229
0.227,0.938,0.183,8.557,-0.725,3.992
0.235,0.942,0.175,8.160,-0.794,4.053
0.237,0.943,0.162,7.511,0.137,3.992
0.246,0.943,0.157,6.389,1.832,3.489
0.248,0.944,0.148,5.130,3.496,2.573
0.245,0.940,0.158,3.794,4.565,0.947
0.240,0.939,0.161,2.435,4.595,-0.893
0.230,0.941,0.163,1.542,3.931,-2.878
0.233,0.946,0.170,1.206,3.985,-4.282
0.216,0.948,0.166,1.122,5.389,-4.908
0.211,0.956,0.178,1.031,6.015,-4.840
0.204,0.958,0.183,0.710,5.947,-4.305
0.193,0.959,0.181,0.374,4.382,-3.519
0.193,0.961,0.187,0.298,2.870,-2.756
0.193,0.956,0.188,1.092,1.229,-2.023
0.196,0.955,0.184,2.260,0.550,-1.107

0.300,0.837,-0.674,-68.130,-54.473,-5.290
0.294,0.781,-0.772,-100.351,-24.908,-6.008
0.300,0.780,-0.913,-139.519,3.641,-6.450
0.266,0.611,-0.989,-188.733,24.191,-6.534
0.164,0.387,-1.009,-250.137,38.359,-10.351
-0.189,-0.062,-0.626,-250.137,-11.206,-23.763
0.319,0.408,-0.871,-250.137,-1.542,-34.893
0.278,0.003,-0.901,-250.137,110.176,-47.519
0.184,-0.238,-0.664,-250.137,231.954,-69.740
0.075,-0.394,-0.281,-250.137,250.130,-95.099
-0.005,-0.575,0.219,-250.137,250.130,-115.779
-0.081,-0.689,0.642,-250.137,250.130,-129.534
-0.121,-0.676,1.041,-250.137,250.130,-140.183
-0.351,-0.864,1.491,-250.137,250.130,-153.985
-0.529,-0.882,2.000,-250.137,250.130,-166.282
-0.732,-0.750,2.000,-250.137,250.130,-177.405
-0.997,-0.621,2.000,-250.137,250.130,-180.679
-1.299,-0.507,2.000,-130.115,231.527,-165.092
-1.417,-0.431,2.000,-47.878,140.160,-140.061
-1.402,-0.379,2.000,14.519,47.687,-102.183
-1.332,-0.352,2.000,63.687,-32.756,-58.466
-1.189,-0.329,2.000,102.565,-83.305,-17.023
-1.015,-0.294,1.995,134.557,-103.832,23.229
-0.859,-0.240,1.701,157.107,-115.473,55.015
-0.687,-0.157,1.442,171.237,-120.053,77.565
-0.520,-0.072,1.230,181.046,-115.511,96.084
-0.372,-0.000,1.053,187.305,-101.550,111.565
-0.259,0.046,0.935,190.962,-82.382,121.939
-0.171,0.101,0.835,194.069,-65.595,127.595
-0.121,0.119,0.792,197.076,-54.702,128.450
-0.090,0.148,0.752,199.756,-51.870,125.023
-0.068,0.181,0.718,202.649,-54.885,116.412
-0.043,0.219,0.655,203.725,-58.496,104.939
-0.033,0.244,0.605,202.802,-61.336,91.824
-0.021,0.279,0.593,198.878,-60.725,77.282
-0.017,0.304,0.566,193.580,-58.145,63.809
-0.023,0.344,0.562,186.420,-55.649,49.053
-0.026,0.403,0.528,178.901,-52.069,35.519
-0.028,0.454,0.500,170.802,-45.580,24.573
-0.040,0.489,0.490,163.092,-38.275,19.153
-0.038,0.542,0.472,155.046,-32.580,17.191
-0.058,0.574,0.455,146.580,-28.626,18.244
-0.049,0.613,0.452,136.565,-25.137,21.611
-0.047,0.647,0.458,126.405,-21.015,26.328
-0.033,0.679,0.473,114.962,-18.656,31.511
-0.025,0.698,0.485,107.198,-17.092,34.962
-0.011,0.704,0.487,99.939,-16.153,38.153
-0.006,0.714,0.494,95.053,-17.450,40.076
0.012,0.719,0.492,92.580,-15.733,40.924
0.029,0.734,0.496,92.427,-10.939,41.061
0.048,0.740,0.501,93.916,-8.221,42.046
0.055,0.737,0.508,97.069,-6.496,43.069
0.058,0.740,0.507,100.115,-7.000,42.985
0.059,0.738,0.514,104.130,-10.008,42.397
0.064,0.738,0.500,108.084,-14.122,41.473
0.073,0.746,0.495,111.885,-18.504,39.939
0.083,0.748,0.477,115.168,-20.718,37.771
0.088,0.762,0.450,117.756,-21.412,34.863
0.084,0.776,0.430,119.244,-22.687,30.969
0.071,0.791,0.419,119.595,-25.244,27.733
0.076,0.804,0.388,119.603,-26.099,24.817
0.081,0.821,0.373,119.351,-25.153,23.076
0.099,0.850,0.332,120.595,-21.840,22.099
0.079,0.841,0.323,122.405,-20.366,21.046
0.093,0.846,0.316,123.863,-19.290,20.908
0.097,0.861,0.302,125.282,-17.061,20.710
0.111,0.878,0.271,127.168,-13.786,20.611
0.115,0.888,0.256,129.687,-9.817,19.985
0.115,0.876,0.233,132.176,-9.565,18.802
0.102,0.866,0.253,133.336,-14.160,17.977
0.120,0.867,0.213,132.282,-17.076,17.344
0.135,0.900,0.185,130.382,-20.313,16.435
0.121,0.900,0.164,129.527,-30.779,14.878
0.094,0.820,0.205,126.206,-44.160,12.427
0.147,0.901,0.106,120.603,-48.420,8.603
0.147,0.937,0.120,115.092,-45.832,5.733
0.159,0.956,0.069,109.267,-42.702,3.237
0.141,0.966,0.066,101.832,-41.695,1.611
0.144,0.972,0.045,94.771,-39.641,0.779
0.154,0.970,-0.008,88.405,-35.962,0.336
0.145,0.977,-0.026,82.282,-33.740,-0.183
0.123,0.975,-0.011,75.191,-32.634,-0.366
0.122,0.983,-0.024,68.282,-31.794,0.450
0.119,0.990,-0.038,61.824,-30.000,1.580
0.134,0.999,-0.090,54.496,-28.031,2.931
0.138,1.001,-0.071,46.802,-26.565,4.863
0.138,1.001,-0.095,39.481,-23.023,7.351
0.134,0.994,-0.082,33.954,-18.130,8.908
0.147,0.994,-0.120,26.962,-12.084,10.321
0.152,0.985,-0.102,20.183,-9.099,10.382
0.142,0.990,-0.094,14.580,-8.008,10.038
0.151,0.978,-0.093,8.977,-6.786,8.756
0.154,0.981,-0.103,5.305,-4.840,7.458
0.169,0.973,-0.100,2.260,-2.908,6.718
0.164,0.961,-0.084,-0.160,-0.771,6.084
0.170,0.955,-0.091,-2.427,1.023,5.443
0.170,0.964,-0.084,-3.962,1.992,4.244
0.180,0.961,-0.069,-5.656,3.405,2.557
0.172,0.982,-0.055,-7.366,5.321,0.954
0.171,0.982,-0.045,-8.481,6.351,-0.626
0.164,0.975,-0.048,-8.718,7.458,-1.122
0.164,0.977,-0.045,-8.695,8.260,-0.740
0.164,0.985,-0.031,-8.794,8.061,0.000
0.152,0.988,-0.017,-8.947,8.939,0.977
0.159,0.996,-0.009,-9.023,9.206,1.916
0.155,1.004,0.006,-9.389,8.214,3.084
0.164,0.992,0.021,-9.725,6.382,3.901
0.161,0.989,0.031,-9.824,5.275,4.198
0.181,0.987,0.027,-8.954,4.786,4.099
0.178,0.985,0.030,-7.328,6.305,3.847
0.182,0.987,0.032,-5.168,7.313,3.252
0.179,0.988,0.047,-2.779,7.214,2.542
0.177,0.983,0.042,-1.260,5.504,1.489
0.174,0.989,0.043,0.130,4.359,0.679
0.175,0.983,0.033,1.405,2.763,0.740
0.169,0.982,0.031,2.198,0.359,1.191
0.171,0.981,0.021,2.344,-1.374,1.672
0.175,0.979,0.010,2.588,-1.405,2.336
0.183,0.982,0.009,2.489,-0.092,2.733

0.182,0.816,-0.608,-29.916,-42.389,-6.267
0.242,0.784,-0.864,-51.687,-31.740,-7.649
0.255,0.798,-0.893,-82.244,-15.382,-8.885
0.264,0.770,-1.013,-124.450,8.420,-12.328
0.257,0.738,-1.084,-181.702,43.954,-20.031
0.264,0.667,-1.153,-250.137,89.695,-32.382
0.183,0.555,-1.067,-250.137,139.260,-50.412
0.076,0.350,-0.957,-250.137,171.763,-69.794
-0.010,0.124,-0.762,-250.137,190.023,-86.321
-0.064,-0.074,-0.544,-250.137,197.198,-93.168
-0.082,-0.241,-0.302,-250.137,204.542,-95.237
-0.093,-0.332,-0.073,-250.137,210.603,-96.092
-0.047,-0.432,0.137,-250.137,226.908,-97.985
-0.052,-0.491,0.393,-250.137,250.130,-105.924
-0.168,-0.492,0.806,-250.137,250.130,-121.695
-0.328,-0.549,1.170,-250.137,250.130,-147.221
-0.577,-0.593,1.547,-250.137,250.130,-164.649
-0.856,-0.643,1.957,-250.137,250.130,-174.710
-1.031,-0.581,2.000,-250.137,246.588,-171.443
-1.111,-0.514,2.000,-250.137,205.481,-155.908
-1.221,-0.492,2.000,-205.718,174.542,-132.687
-1.348,-0.409,2.000,-105.290,129.802,-101.794
-1.444,-0.369,2.000,-28.053,65.870,-70.290
-1.426,-0.316,2.000,32.031,-8.893,-33.420
-1.324,-0.288,2.000,79.802,-71.137,5.916
-1.151,-0.257,2.000,116.542,-98.557,40.275
-0.942,-0.223,1.861,156.321,-114.176,80.687
-0.772,-0.178,1.626,178.947,-124.863,104.267
-0.604,-0.134,1.397,196.191,-125.260,120.763
-0.464,-0.097,1.201,208.153,-119.229,131.053
-0.353,-0.045,1.058,218.939,-110.092,137.695
-0.263,0.001,0.954,226.420,-103.611,140.824
-0.204,0.029,0.864,231.748,-100.153,141.550
-0.156,0.068,0.773,235.000,-103.206,139.405
-0.100,0.101,0.700,235.847,-105.076,134.275
-0.053,0.155,0.641,235.214,-105.511,127.618
-0.010,0.204,0.576,233.122,-101.359,119.214
0.022,0.257,0.543,229.412,-93.557,109.336
0.045,0.299,0.508,222.298,-86.931,96.893
0.055,0.346,0.489,214.221,-80.435,85.313
0.051,0.387,0.474,204.374,-74.031,72.947
0.055,0.445,0.441,192.779,-67.725,59.939
0.070,0.481,0.420,182.122,-60.534,50.168
0.057,0.522,0.393,171.504,-53.359,41.977
0.055,0.553,0.388,161.221,-47.107,35.069
0.055,0.577,0.374,151.450,-44.137,31.046
0.061,0.603,0.370,141.580,-38.595,28.267
0.060,0.635,0.367,132.809,-32.328,26.420
0.072,0.677,0.365,124.992,-26.458,26.344
0.069,0.693,0.372,117.817,-21.969,26.802
0.057,0.710,0.394,111.198,-20.771,27.496
0.062,0.723,0.392,104.176,-21.344,28.053
0.070,0.734,0.392,96.847,-23.374,27.595
0.090,0.747,0.377,88.679,-24.382,26.855
0.104,0.756,0.361,83.153,-22.282,26.206
0.117,0.766,0.370,78.397,-19.344,25.313
0.119,0.776,0.366,73.397,-17.389,23.534
0.125,0.781,0.363,69.611,-16.664,21.771
0.127,0.783,0.361,66.664,-14.885,19.954
0.123,0.796,0.359,64.420,-13.038,18.321
0.122,0.801,0.375,62.298,-13.229,17.031
0.120,0.808,0.367,60.000,-14.023,16.160
0.116,0.802,0.367,57.969,-14.145,14.962
0.123,0.819,0.365,56.153,-12.969,13.817
0.120,0.822,0.369,54.573,-12.275,12.565
0.115,0.821,0.365,53.221,-13.275,10.397
0.104,0.830,0.365,51.809,-13.954,8.595
0.104,0.847,0.365,50.290,-15.221,7.168
0.108,0.848,0.351,49.939,-14.641,6.855
0.111,0.856,0.350,49.695,-10.496,8.168
0.112,0.867,0.354,48.450,-7.489,9.458
0.112,0.865,0.349,46.908,-6.924,10.656
0.121,0.864,0.353,45.863,-5.313,11.328
0.107,0.873,0.354,44.557,-5.489,11.344
0.108,0.872,0.358,43.695,-6.710,11.221
0.113,0.875,0.360,42.702,-7.718,11.206
0.113,0.884,0.354,42.107,-8.718,11.344
0.101,0.889,0.345,41.710,-11.046,11.282
0.112,0.886,0.343,41.267,-12.794,11.695
0.122,0.892,0.335,40.702,-11.969,12.855
0.119,0.896,0.343,40.115,-13.122,14.176
0.126,0.891,0.337,39.443,-14.603,15.092
0.120,0.896,0.335,39.084,-15.740,15.885
0.138,0.891,0.307,39.290,-13.282,16.038
0.142,0.899,0.312,39.626,-10.473,16.443
0.148,0.903,0.316,39.863,-10.595,16.031
0.158,0.894,0.310,40.206,-10.580,16.198
0.164,0.903,0.324,40.870,-9.244,16.244
0.156,0.899,0.310,41.802,-9.710,15.733
0.165,0.898,0.312,43.237,-10.366,15.603
0.160,0.898,0.313,44.618,-12.779,14.718
0.155,0.905,0.295,45.771,-15.511,13.221
0.162,0.908,0.277,47.168,-16.496,12.443
0.152,0.913,0.269,48.275,-16.023,11.771
0.158,0.917,0.243,49.443,-14.359,12.015
0.170,0.936,0.238,50.374,-10.649,12.687
0.146,0.928,0.236,51.176,-8.878,13.008
0.156,0.927,0.224,50.313,-5.603,14.031
0.150,0.935,0.234,48.351,-4.771,14.733
0.154,0.941,0.223,46.168,-5.351,15.244
0.158,0.945,0.218,44.595,-6.160,15.855
0.153,0.937,0.212,43.656,-8.359,16.496
0.159,0.946,0.203,43.198,-11.885,17.481
0.168,0.945,0.206,43.145,-13.389,18.565
0.180,0.936,0.178,43.168,-14.626,19.893
0.187,0.930,0.170,43.237,-15.275,20.626
0.204,0.928,0.152,42.489,-14.756,20.878
0.221,0.932,0.152,41.298,-12.832,20.802
0.227,0.938,0.148,39.863,-10.573,19.870
0.227,0.933,0.130,38.687,-9.435,18.168
0.241,0.932,0.132,36.832,-9.176,16.275
0.240,0.937,0.135,34.573,-9.267,13.992
0.237,0.935,0.121,31.626,-9.542,12.031
0.247,0.940,0.121,29.099,-10.588,9.794
0.250,0.942,0.115,27.168,-10.603,7.756
0.250,0.941,0.104,25.542,-10.191,6.084
0.256,0.940,0.103,24.191,-9.313,4.557
0.260,0.937,0.095,23.031,-7.901,3.275
0.249,0.942,0.093,21.962,-6.626,1.847

0.293,0.847,-0.619,-137.786,9.351,-38.397
0.261,0.785,-0.694,-181.153,42.840,-45.023
0.260,0.722,-0.743,-244.298,95.687,-53.321
0.164,0.595,-0.730,-250.137,137.313,-62.450
0.068,0.478,-0.650,-250.137,161.748,-72.672
-0.021,0.336,-0.494,-250.137,167.687,-80.733
-0.066,0.212,-0.338,-250.137,162.252,-83.885
-0.041,0.106,-0.130,-250.137,161.794,-79.908
-0.013,0.077,0.190,-250.137,171.023,-75.290
-0.035,-0.025,0.454,-250.137,192.931,-76.191
-0.054,-0.049,0.750,-250.137,215.534,-85.824
-0.178,-0.158,1.136,-250.137,228.687,-99.519
-0.293,-0.113,1.613,-250.137,221.656,-111.824
-0.389,-0.132,1.875,-250.137,198.015,-115.595
-0.544,-0.127,2.000,-250.137,159.122,-112.649
-0.593,-0.061,2.000,-197.542,124.031,-103.290
-0.698,-0.057,2.000,-126.443,96.710,-89.969
-0.788,-0.057,2.000,-66.435,68.214,-74.321
-0.864,-0.028,2.000,-17.427,27.473,-55.076
-0.849,0.013,2.000,24.519,-10.511,-30.992
-0.755,0.075,2.000,63.115,-36.046,0.260
-0.661,0.115,1.857,91.656,-51.229,28.321
-0.557,0.137,1.683,114.015,-61.901,50.603
-0.447,0.163,1.512,134.519,-67.534,68.038
-0.333,0.180,1.348,152.282,-68.366,80.924
-0.236,0.202,1.208,169.634,-66.565,89.794
-0.156,0.226,1.076,183.252,-66.489,93.756
-0.089,0.265,0.970,193.412,-67.695,93.870
-0.045,0.269,0.874,201.122,-68.015,91.550
-0.018,0.301,0.793,206.893,-71.382,85.786
-0.009,0.329,0.722,209.275,-76.702,78.000
0.009,0.353,0.671,208.420,-82.351,67.977
0.015,0.405,0.618,204.504,-84.603,58.496
0.014,0.440,0.568,199.076,-83.641,48.763
0.026,0.482,0.528,192.366,-81.107,40.466
0.027,0.524,0.470,185.756,-76.443,33.366
0.031,0.554,0.441,180.603,-70.099,29.191
0.023,0.578,0.431,175.901,-63.855,26.702
0.014,0.610,0.402,171.084,-56.740,25.786
0.014,0.640,0.377,165.969,-47.397,26.168
0.010,0.671,0.356,161.038,-38.534,28.130
0.032,0.711,0.351,156.420,-32.069,30.649
0.037,0.728,0.356,151.397,-26.298,34.038
0.037,0.737,0.359,146.519,-23.183,36.756
0.040,0.751,0.352,141.611,-23.595,38.786
0.055,0.762,0.354,136.061,-25.137,40.214
0.063,0.766,0.347,130.374,-27.718,41.008
0.083,0.777,0.332,124.656,-30.641,41.206
0.098,0.781,0.316,119.947,-32.458,40.756
0.125,0.792,0.314,115.962,-32.397,39.695
0.136,0.794,0.301,111.672,-31.153,38.832
0.167,0.812,0.297,107.519,-28.473,37.321
0.176,0.811,0.291,104.000,-25.740,35.786
0.187,0.817,0.281,100.466,-23.450,33.282
0.178,0.824,0.293,97.626,-24.962,30.313
0.187,0.829,0.295,94.649,-28.336,27.191
0.204,0.833,0.264,92.366,-28.145,24.092
0.206,0.844,0.254,90.191,-25.412,20.695
0.205,0.848,0.260,87.725,-26.046,17.229
0.214,0.857,0.226,84.656,-29.214,14.481
0.232,0.858,0.223,82.038,-27.687,11.817
0.220,0.865,0.210,79.000,-26.328,8.870
0.210,0.882,0.209,75.153,-26.771,5.458
0.210,0.892,0.208,69.985,-29.366,2.214
0.219,0.913,0.197,66.290,-26.832,0.557
0.194,0.907,0.167,63.870,-24.397,-1.275
0.197,0.916,0.169,60.725,-21.092,-2.099
0.181,0.930,0.164,56.656,-19.099,-1.893
0.197,0.938,0.162,52.542,-16.336,-0.847
0.180,0.938,0.153,49.160,-15.092,-0.107
0.184,0.928,0.145,46.420,-14.649,0.527
0.180,0.944,0.151,43.260,-13.565,1.092
0.182,0.947,0.151,39.618,-12.435,0.939
0.174,0.944,0.154,35.931,-12.771,0.672
0.179,0.953,0.141,32.817,-10.489,0.702
0.172,0.960,0.143,30.382,-7.977,0.290
0.169,0.957,0.156,28.588,-7.664,0.924
0.181,0.951,0.143,27.458,-5.206,2.183
0.179,0.957,0.140,27.061,-3.366,2.901
0.183,0.957,0.144,26.466,-3.122,3.740
0.189,0.942,0.150,25.969,-4.947,4.389
0.196,0.943,0.142,26.031,-5.176,4.344
0.198,0.951,0.149,26.031,-4.863,3.588
0.189,0.947,0.145,25.885,-6.053,2.618
0.204,0.948,0.130,25.634,-7.534,1.466
0.204,0.945,0.129,26.023,-7.641,0.847
0.208,0.956,0.104,27.595,-5.901,0.305
0.191,0.948,0.136,28.206,-4.863,-0.962
0.187,0.964,0.124,29.626,-5.969,-0.664
0.198,0.953,0.122,30.573,-5.351,-0.771
0.189,0.965,0.117,30.763,-3.618,-0.855
0.180,0.965,0.125,30.130,-4.481,-1.427
0.180,0.972,0.115,28.702,-7.359,-1.015
0.187,0.971,0.097,27.947,-8.389,-0.511
0.192,0.978,0.092,27.557,-7.374,0.038
0.190,0.973,0.088,27.183,-7.725,-0.038
0.189,0.972,0.083,26.328,-9.237,0.260
0.199,0.971,0.066,25.664,-9.756,0.802
0.187,0.971,0.071,25.267,-8.962,0.779
0.194,0.974,0.060,24.450,-8.229,0.969
0.193,0.976,0.054,24.000,-7.824,1.786
0.195,0.973,0.056,23.443,-7.053,3.008
0.201,0.977,0.051,22.702,-7.282,3.847
0.204,0.969,0.040,21.786,-7.153,4.382
0.209,0.963,0.038,20.985,-6.229,3.939
0.212,0.959,0.029,20.573,-6.107,3.183
0.220,0.961,0.035,20.237,-6.229,2.099
0.207,0.956,0.029,19.863,-6.626,0.855
0.212,0.960,0.023,19.351,-6.130,-0.031
0.213,0.968,0.011,18.916,-4.466,-1.092
0.208,0.973,0.002,17.947,-3.603,-1.817
0.200,0.979,0.003,16.641,-3.137,-2.473
0.205,0.982,0.001,14.473,-2.748,-2.542
0.206,0.980,-0.004,12.656,-0.519,-2.031
0.203,0.985,0.000,10.145,0.664,-1.443
0.196,0.993,0.002,8.435,0.321,-1.015
0.189,0.987,0.003,6.702,0.863,-0.389
0.197,0.989,-0.004,5.458,2.351,0.611
0.202,0.986,0.010,4.557,3.344,1.344

0.295,0.879,-0.635,-51.275,-29.580,-18.641
0.270,0.837,-0.729,-78.214,0.679,-24.847
0.270,0.835,-0.854,-121.786,49.992,-36.130
0.250,0.783,-0.976,-171.458,92.802,-49.107
0.195,0.642,-1.020,-238.496,138.450,-66.053
0.172,0.526,-1.019,-250.137,171.542,-81.710
0.098,0.396,-0.876,-250.137,188.725,-93.366
0.034,0.249,-0.710,-250.137,194.969,-103.450
-0.047,0.090,-0.416,-250.137,193.412,-110.176
-0.104,-0.027,-0.156,-250.137,186.382,-114.878
-0.137,-0.121,0.152,-250.137,187.992,-115.458
-0.120,-0.179,0.371,-250.137,204.786,-117.565
-0.156,-0.203,0.667,-250.137,219.435,-126.084
-0.249,-0.266,1.034,-250.137,227.183,-135.870
-0.358,-0.278,1.405,-250.137,226.580,-141.290
-0.461,-0.211,1.747,-250.137,216.122,-141.733
-0.616,-0.246,2.000,-250.137,198.931,-135.473
-0.765,-0.228,2.000,-250.137,168.618,-122.893
-0.898,-0.161,2.000,-185.489,131.099,-107.244
-1.004,-0.144,2.000,-104.435,84.771,-88.878
-1.043,-0.112,2.000,-34.260,35.076,-66.336
-1.031,-0.053,2.000,21.878,-12.832,-39.802
-0.940,-0.021,2.000,73.763,-54.870,-5.710
-0.837,0.004,1.950,104.718,-75.702,22.779
-0.729,0.040,1.733,125.382,-89.832,45.802
-0.588,0.077,1.486,144.733,-102.695,69.756
-0.445,0.113,1.306,158.000,-107.137,86.198
-0.328,0.151,1.155,168.145,-104.420,97.603
-0.207,0.192,1.016,176.626,-96.473,104.695
-0.140,0.229,0.923,183.786,-84.290,107.924
-0.095,0.259,0.851,189.137,-76.107,105.985
-0.053,0.288,0.802,192.237,-73.740,101.000
-0.033,0.315,0.734,194.405,-77.794,94.298
-0.009,0.342,0.678,195.252,-80.763,85.885
0.016,0.374,0.634,193.863,-78.863,76.672
0.018,0.420,0.593,191.229,-74.481,65.015
0.020,0.448,0.572,187.832,-71.206,54.366
-0.007,0.477,0.526,184.321,-69.992,44.580
-0.008,0.495,0.494,180.679,-69.008,37.695
-0.001,0.541,0.465,175.145,-65.550,32.977
0.011,0.566,0.438,169.191,-59.626,31.237
0.042,0.608,0.388,162.122,-49.084,30.053
0.031,0.636,0.404,154.092,-39.397,29.809
0.021,0.675,0.410,144.962,-31.427,29.565
0.037,0.704,0.378,136.847,-28.534,29.336
0.029,0.726,0.411,127.748,-26.557,29.565
0.050,0.736,0.406,120.023,-25.595,30.130
0.062,0.746,0.399,113.206,-24.542,31.115
0.076,0.764,0.398,107.626,-22.267,32.366
0.086,0.760,0.406,103.679,-21.267,32.496
0.096,0.776,0.398,101.481,-20.863,33.275
0.102,0.776,0.393,100.405,-21.076,33.206
0.114,0.782,0.384,100.679,-22.366,32.634
0.130,0.781,0.380,100.298,-22.351,31.962
0.130,0.797,0.356,100.176,-22.557,30.107
0.147,0.799,0.346,99.275,-22.328,28.031
0.157,0.814,0.331,97.305,-19.214,25.198
0.155,0.832,0.327,94.260,-17.107,21.618
0.156,0.846,0.327,90.939,-17.084,18.351
0.159,0.843,0.314,88.298,-18.351,16.298
0.156,0.851,0.293,85.443,-19.046,14.122
0.164,0.859,0.285,82.443,-20.702,12.557
0.160,0.876,0.277,78.969,-22.366,10.618
0.162,0.871,0.264,76.664,-24.550,9.427
0.175,0.885,0.251,73.832,-23.725,8.794
0.163,0.893,0.234,71.412,-21.649,8.802
0.173,0.900,0.230,68.786,-19.267,9.267
0.173,0.908,0.216,65.412,-17.947,10.000
0.175,0.908,0.210,61.809,-16.618,10.664
0.175,0.917,0.201,57.565,-14.168,11.046
0.178,0.918,0.207,53.099,-13.939,11.145
0.187,0.915,0.180,48.229,-14.733,11.466
0.191,0.915,0.177,44.725,-16.458,11.046
0.192,0.910,0.171,42.260,-18.206,10.420
0.203,0.915,0.163,40.168,-19.710,9.580
0.200,0.924,0.164,38.023,-22.656,8.809
0.199,0.924,0.151,35.885,-26.145,8.282
0.203,0.926,0.143,33.137,-28.710,8.718
0.187,0.926,0.140,29.992,-31.931,8.748
0.198,0.931,0.125,25.748,-31.183,8.695
0.195,0.953,0.126,21.550,-28.298,8.305
0.205,0.952,0.121,17.687,-23.748,7.947
0.218,0.953,0.116,15.405,-15.733,7.252
0.205,0.951,0.129,14.534,-8.901,5.893
0.202,0.941,0.146,14.634,-6.947,4.153
0.192,0.929,0.141,15.405,-6.069,1.931
0.206,0.936,0.153,17.412,-2.771,-0.076
0.196,0.934,0.161,19.473,-1.282,-1.695
0.191,0.930,0.148,21.710,-1.374,-2.954
0.189,0.947,0.153,23.099,-0.954,-3.534
0.187,0.940,0.155,24.069,-1.046,-3.588
0.185,0.956,0.154,24.305,1.321,-3.672
0.184,0.959,0.159,24.756,1.840,-4.191
0.183,0.965,0.161,25.802,2.603,-3.863
0.166,0.965,0.169,27.397,0.542,-3.679
0.165,0.956,0.158,29.038,-1.008,-2.962
0.169,0.962,0.142,30.099,-1.183,-1.733
0.161,0.970,0.136,30.565,-3.290,0.069
0.163,0.969,0.125,29.275,-6.550,2.198
0.177,0.973,0.120,27.687,-7.221,3.740
0.182,0.974,0.107,26.397,-5.244,5.137
0.183,0.975,0.098,25.504,-2.992,5.580
0.184,0.969,0.103,24.779,-2.786,6.214
0.192,0.972,0.101,23.595,-4.435,6.893
0.191,0.970,0.090,23.130,-6.672,7.527
0.200,0.964,0.078,22.802,-8.649,7.924
0.200,0.960,0.046,22.679,-9.336,8.221
0.218,0.957,0.060,21.718,-8.008,8.496
0.223,0.958,0.053,20.176,-7.397,8.282
0.234,0.957,0.046,18.473,-7.382,7.916
0.237,0.956,0.025,16.649,-8.237,7.092
0.247,0.958,0.030,14.489,-7.679,5.901
0.252,0.952,0.029,12.550,-6.084,4.359
0.257,0.952,0.030,10.840,-3.244,2.206
0.247,0.956,0.039,9.687,-0.191,0.130
0.243,0.964,0.033,8.573,0.893,-1.656
0.235,0.962,0.044,7.931,1.267,-2.565
0.240,0.966,0.039,7.359,2.344,-2.351
0.223,0.970,0.051,6.855,2.542,-2.443

0.324,0.912,-0.586,-36.641,-52.595,-29.916
0.313,0.812,-0.717,-64.992,-32.817,-32.679
0.313,0.856,-0.773,-111.191,2.534,-37.076
0.318,0.850,-0.851,-174.840,47.664,-45.908
0.261,0.742,-0.855,-250.137,100.359,-61.153
0.185,0.556,-0.865,-250.137,130.863,-75.550
0.136,0.368,-0.796,-250.137,153.756,-88.206
0.118,0.199,-0.681,-250.137,182.206,-98.649
0.042,0.073,-0.479,-250.137,196.191,-107.443
-0.030,-0.056,-0.198,-250.137,183.611,-114.863
-0.046,-0.110,0.058,-250.137,175.672,-118.695
-0.038,-0.148,0.313,-250.137,186.603,-123.450
-0.044,-0.219,0.571,-250.137,205.672,-129.679
-0.195,-0.222,1.055,-250.137,219.115,-137.878
-0.309,-0.214,1.377,-250.137,220.282,-145.405
-0.437,-0.177,1.753,-250.137,211.618,-148.771
-0.644,-0.247,2.000,-250.137,186.489,-147.733
-0.824,-0.208,2.000,-250.137,149.397,-138.107
-0.945,-0.194,2.000,-175.618,114.618,-120.947
-1.049,-0.167,2.000,-101.611,75.382,-95.954
-1.081,-0.118,2.000,-42.885,33.931,-68.817
-1.076,-0.094,2.000,8.214,-8.038,-37.809
-1.001,-0.057,2.000,55.366,-46.130,-0.817
-0.849,-0.015,1.956,94.618,-66.870,37.664
-0.717,0.036,1.750,123.557,-75.420,69.282
-0.593,0.061,1.562,144.847,-80.756,91.496
-0.475,0.075,1.387,162.878,-82.656,108.107
-0.366,0.083,1.218,179.481,-80.573,120.244
-0.255,0.118,1.095,192.038,-74.687,126.687
-0.184,0.162,0.966,201.908,-69.168,128.260
-0.139,0.171,0.895,210.168,-64.198,126.198
-0.122,0.192,0.818,215.916,-63.450,121.053
-0.096,0.228,0.774,218.863,-67.771,112.466
-0.069,0.287,0.708,218.931,-77.153,100.992
-0.048,0.328,0.644,216.939,-82.664,89.870
-0.023,0.360,0.604,213.763,-81.740,80.061
-0.010,0.397,0.540,208.794,-75.710,67.649
-0.019,0.443,0.520,203.489,-69.702,56.992
-0.024,0.484,0.482,197.168,-62.748,47.458
-0.007,0.545,0.456,190.206,-55.740,40.618
0.002,0.589,0.433,183.420,-48.725,37.504
0.006,0.615,0.413,176.198,-39.817,37.237
-0.006,0.651,0.397,170.092,-33.290,37.305
-0.009,0.680,0.394,164.382,-33.473,38.237
0.020,0.711,0.391,156.802,-35.969,40.794
0.038,0.730,0.364,151.008,-35.153,43.779
0.070,0.731,0.353,144.740,-28.847,46.206
0.101,0.756,0.351,137.588,-19.420,47.863
0.114,0.773,0.339,131.275,-15.382,47.908
0.123,0.781,0.337,124.466,-16.847,46.153
0.128,0.784,0.325,118.420,-20.702,43.275
0.141,0.798,0.317,112.084,-26.969,39.649
0.164,0.808,0.300,106.282,-29.824,37.466
0.179,0.811,0.288,100.695,-31.504,36.191
0.177,0.817,0.273,95.908,-34.626,34.489
0.164,0.820,0.273,89.672,-38.687,31.916
0.163,0.838,0.263,83.962,-43.473,28.206
0.171,0.865,0.246,76.321,-45.458,25.038
0.191,0.878,0.226,69.504,-40.588,23.046
0.197,0.894,0.214,65.137,-33.550,21.954
0.205,0.892,0.198,63.115,-26.359,21.061
0.196,0.884,0.182,61.992,-20.618,19.458
0.200,0.876,0.178,61.473,-16.122,17.573
0.187,0.885,0.185,61.092,-13.725,15.366
0.192,0.889,0.190,60.366,-11.267,12.168
0.193,0.895,0.183,59.634,-8.595,9.908
0.197,0.900,0.187,58.611,-6.893,8.832
0.190,0.901,0.178,57.405,-7.481,7.687
0.200,0.923,0.193,56.214,-8.183,6.420
0.174,0.890,0.205,57.076,-10.756,4.359
0.177,0.908,0.199,55.916,-13.794,2.870
0.168,0.919,0.189,55.183,-17.687,1.992
0.181,0.923,0.178,54.206,-17.718,2.435
0.174,0.938,0.160,53.275,-17.550,2.511
0.175,0.943,0.150,52.649,-15.756,3.015
0.168,0.954,0.149,51.351,-13.557,3.252
0.159,0.950,0.154,50.412,-11.427,3.389
0.162,0.952,0.142,49.191,-9.687,3.863
0.171,0.950,0.138,47.977,-7.321,5.115
0.170,0.958,0.141,47.008,-7.053,5.756
0.185,0.957,0.138,46.534,-7.000,6.626
0.184,0.957,0.121,46.038,-7.893,6.458
0.183,0.949,0.122,45.870,-11.015,5.573
0.185,0.947,0.115,45.565,-14.893,4.466
0.190,0.955,0.112,45.290,-16.954,3.229
0.184,0.959,0.100,44.565,-16.397,1.977
0.187,0.967,0.091,43.015,-15.374,1.015
0.185,0.972,0.066,41.710,-15.366,0.397
0.182,0.972,0.066,40.817,-14.389,0.725
0.189,0.978,0.048,39.588,-12.443,1.725
0.182,0.970,0.052,37.084,-11.702,2.893
0.187,0.979,0.035,33.649,-10.069,4.130
0.194,0.983,0.036,31.573,-9.489,4.969
0.196,0.977,0.015,30.084,-10.275,5.656
0.207,0.973,0.015,28.802,-9.786,6.481
0.203,0.971,0.000,27.687,-9.153,7.145
0.211,0.964,-0.004,26.183,-8.351,7.328
0.210,0.971,-0.010,25.015,-6.611,7.565
0.218,0.968,-0.004,23.817,-6.481,7.611
0.226,0.963,-0.012,22.244,-6.260,7.870
0.230,0.965,-0.013,20.832,-6.885,7.641
0.235,0.959,-0.028,20.046,-6.618,7.069
0.239,0.964,-0.026,19.198,-6.534,6.649
0.247,0.959,-0.036,18.527,-6.229,6.504
0.243,0.956,-0.036,18.046,-5.405,5.863
0.242,0.965,-0.038,16.740,-5.031,4.473
0.244,0.970,-0.037,15.229,-4.656,3.076
0.254,0.975,-0.045,13.244,-3.290,1.351
0.253,0.991,-0.045,11.939,0.221,0.160
0.227,0.960,-0.029,10.893,2.107,-1.519
0.239,0.982,-0.032,9.046,3.374,-1.809
0.233,0.984,-0.031,7.450,4.382,-2.008
0.229,0.978,-0.017,5.832,6.084,-2.313
0.224,0.993,-0.016,5.656,5.427,-2.542
0.219,0.968,-0.011,5.527,3.885,-2.321
0.226,0.985,-0.015,4.672,2.450,-1.198
0.222,0.972,-0.008,3.870,1.847,-0.626
0.214,0.976,-0.013,3.237,1.435,-0.672
0.216,0.979,-0.010,2.847,0.496,-0.817

0.231,0.790,-0.722,-54.969,-26.908,-4.908
0.251,0.793,-0.909,-84.511,-16.267,-10.611
0.242,0.722,-0.990,-134.031,12.580,-18.130
0.246,0.694,-1.109,-199.405,54.641,-24.832
0.181,0.580,-1.162,-250.137,109.153,-36.366
0.091,0.444,-1.076,-250.137,178.489,-58.992
-0.021,0.249,-0.799,-250.137,224.321,-82.672
-0.148,0.039,-0.531,-250.137,231.458,-102.962
-0.169,-0.145,-0.232,-250.137,239.557,-116.672
-0.168,-0.284,0.160,-250.137,247.366,-123.450
-0.170,-0.452,0.411,-250.137,250.130,-126.366
-0.164,-0.527,0.677,-250.137,250.130,-128.893
-0.270,-0.656,1.122,-250.137,250.130,-127.397
-0.488,-0.758,1.567,-250.137,250.130,-129.382
-0.657,-0.673,2.000,-250.137,250.130,-134.183
-0.737,-0.368,2.000,-250.137,220.183,-132.802
-0.835,-0.291,2.000,-208.542,190.427,-122.672
-0.984,-0.184,2.000,-92.542,158.412,-105.901
-1.189,-0.109,2.000,11.992,82.122,-80.557
-1.272,-0.079,2.000,65.802,-7.328,-56.366
-1.185,-0.064,2.000,100.137,-85.237,-28.282
-0.989,-0.014,2.000,121.901,-117.389,2.618
-0.831,0.016,1.750,136.924,-119.672,33.405
-0.689,0.047,1.514,149.168,-111.565,61.649
-0.534,0.109,1.322,160.084,-98.252,87.702
-0.415,0.155,1.182,166.947,-81.397,103.748
-0.313,0.191,1.092,174.000,-63.672,118.420
-0.230,0.210,1.003,180.130,-53.504,127.458
-0.156,0.225,0.959,188.061,-48.321,133.328
-0.112,0.244,0.917,194.534,-50.366,133.542
-0.076,0.254,0.887,201.198,-59.969,129.641
-0.043,0.272,0.828,208.382,-71.405,122.305
-0.020,0.299,0.758,214.565,-81.725,112.130
0.003,0.328,0.694,219.504,-92.031,98.779
0.021,0.358,0.633,220.634,-98.191,86.389
0.052,0.393,0.587,218.954,-96.664,74.840
0.053,0.428,0.553,215.137,-89.756,63.595
0.066,0.468,0.517,210.252,-77.962,53.924
0.052,0.503,0.482,205.061,-66.656,45.427
0.051,0.543,0.461,199.664,-58.702,38.580
0.029,0.586,0.445,194.214,-55.405,33.008
0.019,0.615,0.417,189.870,-54.031,29.183
0.010,0.652,0.408,185.237,-53.374,27.053
0.016,0.680,0.383,181.809,-50.565,27.458
0.036,0.704,0.353,179.435,-46.908,29.763
0.048,0.712,0.339,176.855,-41.519,33.229
0.054,0.744,0.323,173.992,-35.214,35.779
0.062,0.760,0.309,170.931,-31.145,38.542
0.065,0.769,0.307,165.565,-28.145,40.458
0.078,0.789,0.294,160.893,-28.771,41.099
0.101,0.809,0.276,156.687,-29.977,41.679
0.108,0.804,0.263,155.046,-31.076,40.832
0.124,0.788,0.247,152.344,-32.450,38.725
0.135,0.815,0.229,149.061,-33.557,36.664
0.139,0.831,0.204,145.412,-34.718,34.130
0.156,0.852,0.179,141.359,-36.389,31.832
0.148,0.843,0.152,138.160,-36.939,29.664
0.169,0.853,0.137,134.588,-37.023,28.031
0.177,0.878,0.097,130.267,-37.611,26.466
0.165,0.880,0.092,125.519,-37.802,23.748
0.168,0.887,0.063,119.893,-35.641,21.046
0.161,0.905,0.061,115.198,-34.412,18.672
0.171,0.920,0.024,109.275,-33.366,16.069
0.185,0.917,-0.009,104.527,-30.328,15.038
0.192,0.920,-0.037,100.405,-28.504,14.626
0.191,0.928,-0.024,95.511,-26.611,14.870
0.194,0.942,-0.030,89.824,-23.366,15.053
0.195,0.963,-0.057,83.985,-19.649,15.153
0.191,0.959,-0.031,76.481,-16.832,15.122
0.198,0.959,-0.066,71.496,-16.221,14.786
0.192,0.950,-0.070,66.305,-16.298,14.496
0.202,0.948,-0.083,61.626,-17.534,13.519
0.196,0.948,-0.096,57.160,-19.427,12.817
0.194,0.953,-0.096,51.794,-21.153,12.450
0.220,0.955,-0.109,46.206,-18.206,12.702
0.223,0.977,-0.106,41.565,-14.634,12.580
0.226,0.977,-0.122,36.427,-10.634,12.015
0.223,0.964,-0.113,32.321,-7.565,11.336
0.222,0.970,-0.115,28.092,-4.458,9.863
0.223,0.971,-0.108,23.573,-4.481,7.901
0.217,0.969,-0.121,19.947,-6.420,6.466
0.216,0.966,-0.133,17.168,-5.802,5.389
0.221,0.975,-0.122,15.427,-1.763,5.099
0.226,0.968,-0.120,14.008,0.679,5.397
0.221,0.965,-0.123,12.237,2.573,6.038
0.235,0.964,-0.104,9.504,3.023,7.069
0.244,0.958,-0.119,7.588,3.565,7.382
0.249,0.970,-0.097,6.260,3.977,7.046
0.245,0.962,-0.099,5.328,3.145,5.710
0.236,0.953,-0.100,4.450,0.771,3.534
0.231,0.950,-0.099,4.069,-0.603,1.336
0.243,0.948,-0.100,4.206,0.015,-0.351
0.235,0.947,-0.090,4.817,2.229,-1.954
0.233,0.962,-0.087,5.435,3.183,-3.069
0.224,0.964,-0.094,5.992,3.336,-3.756
0.222,0.966,-0.091,5.672,3.397,-3.718
0.226,0.973,-0.082,4.977,4.290,-3.305
0.222,0.983,-0.076,3.687,5.206,-2.588
0.232,0.979,-0.080,2.443,6.191,-2.321
0.230,0.988,-0.085,1.069,8.321,-2.214
0.219,0.981,-0.067,-0.038,8.061,-2.847
0.217,0.991,-0.067,-1.481,6.061,-3.160
0.219,0.985,-0.075,-2.573,4.282,-2.962
0.213,0.992,-0.057,-3.397,4.221,-2.557
0.209,0.989,-0.061,-3.908,6.489,-2.221
0.212,0.990,-0.061,-3.916,7.916,-1.275
0.211,0.992,-0.049,-3.557,6.824,-0.427
0.212,0.980,-0.051,-2.908,4.496,0.664
0.209,0.980,-0.046,-2.260,3.374,1.809
0.209,0.978,-0.053,-1.466,3.122,2.702
0.214,0.985,-0.051,-0.916,3.061,2.992
0.223,0.980,-0.047,0.061,3.328,2.969
0.226,0.975,-0.046,0.931,2.916,2.908
0.229,0.982,-0.038,1.710,2.244,2.496
0.227,0.976,-0.042,1.901,1.664,1.649
0.229,0.979,-0.059,2.649,1.176,0.290
0.229,0.984,-0.055,3.328,1.351,-0.870
0.227,0.980,-0.057,4.130,1.855,-1.802
0.220,0.975,-0.075,4.542,2.321,-1.595

0.225,0.859,-0.737,-63.985,-1.214,-17.000
0.209,0.814,-0.850,-110.191,28.305,-21.084
0.192,0.800,-0.913,-168.458,43.977,-25.954
0.185,0.693,-0.943,-236.840,58.473,-29.725
0.172,0.608,-0.926,-250.137,74.695,-33.107
0.146,0.476,-0.908,-250.137,89.740,-37.855
0.108,0.308,-0.834,-250.137,108.160,-44.695
0.082,0.217,-0.662,-250.137,125.878,-52.176
0.072,0.135,-0.468,-250.137,140.405,-58.870
0.046,0.039,-0.206,-250.137,152.817,-67.481
0.054,-0.062,0.050,-250.137,167.847,-74.405
0.105,-0.157,0.244,-250.137,197.840,-80.824
0.120,-0.210,0.541,-250.137,242.481,-89.405
0.069,-0.342,0.746,-250.137,250.130,-96.397
0.001,-0.648,0.926,-250.137,250.130,-101.221
-0.216,-0.524,1.310,-250.137,250.130,-110.954
-0.406,-0.502,1.682,-250.137,250.130,-126.267
-0.635,-0.437,2.000,-250.137,250.130,-139.115
-0.752,-0.366,2.000,-236.756,208.634,-142.885
-0.861,-0.294,2.000,-138.947,177.313,-135.733
-1.021,-0.234,2.000,-50.947,136.275,-121.168
-1.136,-0.180,2.000,18.656,71.092,-99.885
-1.151,-0.155,2.000,71.473,-8.977,-69.702
-1.047,-0.146,2.000,105.023,-68.779,-36.931
-0.892,-0.121,1.900,131.466,-93.305,-3.061
-0.763,-0.082,1.651,152.069,-101.473,28.443
-0.653,-0.041,1.462,165.588,-103.618,55.191
-0.535,0.020,1.274,173.641,-104.122,75.725
-0.437,0.089,1.147,178.198,-102.435,88.664
-0.331,0.133,1.030,182.542,-95.855,98.374
-0.249,0.170,0.941,186.809,-83.252,105.779
-0.179,0.215,0.875,189.847,-73.878,109.015
-0.123,0.265,0.820,192.405,-68.718,109.336
-0.085,0.283,0.755,195.756,-64.099,106.290
-0.070,0.312,0.719,198.122,-63.893,101.053
-0.052,0.331,0.669,199.389,-65.313,92.496
-0.052,0.351,0.629,199.618,-67.298,82.244
-0.048,0.379,0.594,197.832,-69.969,69.595
-0.045,0.412,0.543,194.412,-70.824,58.069
-0.038,0.444,0.510,189.145,-68.099,45.939
-0.019,0.494,0.478,183.214,-62.855,37.160
-0.013,0.529,0.462,176.252,-51.229,29.122
-0.009,0.572,0.454,169.740,-41.061,24.206
-0.008,0.608,0.440,162.634,-35.420,21.802
-0.019,0.618,0.432,155.336,-32.794,21.260
-0.022,0.640,0.414,147.893,-32.191,21.305
-0.023,0.669,0.428,138.550,-32.580,21.557
-0.024,0.701,0.432,126.000,-30.954,21.992
0.000,0.731,0.422,116.000,-28.496,23.252
0.006,0.739,0.403,107.947,-27.450,25.031
0.032,0.758,0.404,99.427,-26.160,27.275
0.036,0.765,0.413,92.122,-23.679,29.321
0.044,0.781,0.423,85.901,-21.183,30.061
0.052,0.799,0.412,81.092,-17.260,29.847
0.048,0.802,0.425,79.435,-17.656,28.931
0.070,0.792,0.435,80.092,-19.107,29.282
0.080,0.776,0.441,81.893,-19.244,30.382
0.093,0.781,0.437,85.237,-19.618,31.313
0.098,0.784,0.438,88.977,-20.985,31.092
0.113,0.784,0.435,91.985,-22.626,30.305
0.122,0.794,0.418,94.191,-22.916,28.458
0.138,0.801,0.396,95.435,-22.015,25.779
0.136,0.815,0.381,95.695,-21.656,22.366
0.137,0.832,0.367,95.389,-22.443,17.466
0.130,0.846,0.345,94.679,-23.817,12.802
0.129,0.840,0.333,93.450,-24.176,9.702
0.129,0.854,0.302,92.626,-25.695,7.435
0.126,0.854,0.289,91.534,-24.840,6.580
0.132,0.871,0.280,89.168,-22.695,6.359
0.132,0.883,0.256,85.779,-21.420,6.473
0.126,0.897,0.242,81.450,-19.252,6.603
0.135,0.903,0.239,77.397,-17.099,7.000
0.137,0.909,0.221,73.275,-14.878,7.924
0.127,0.908,0.214,69.756,-15.893,8.137
0.136,0.909,0.203,66.427,-17.046,8.069
0.143,0.915,0.207,62.885,-18.198,7.618
0.137,0.915,0.183,59.817,-19.443,6.878
0.134,0.925,0.181,56.176,-20.374,5.557
0.135,0.922,0.172,52.939,-19.878,4.168
0.148,0.933,0.166,50.534,-19.092,3.168
0.148,0.932,0.155,48.076,-16.504,2.496
0.150,0.932,0.148,46.221,-10.550,2.313
0.154,0.935,0.149,44.511,-6.702,1.863
0.153,0.922,0.139,42.427,-3.634,0.832
0.156,0.944,0.148,39.641,-1.038,-0.954
0.141,0.946,0.140,37.122,0.252,-3.145
0.133,0.946,0.145,34.557,-0.298,-6.107
0.126,0.951,0.134,32.901,-1.687,-7.656
0.126,0.952,0.132,31.603,-3.267,-8.473
0.116,0.958,0.126,30.718,-5.107,-8.718
0.106,0.959,0.119,29.397,-7.687,-8.405
0.111,0.958,0.111,28.718,-8.687,-7.634
0.116,0.971,0.104,27.710,-6.328,-5.519
0.113,0.977,0.108,26.275,-4.901,-3.649
0.117,0.980,0.107,24.458,-2.260,-1.313
0.123,0.970,0.111,23.115,0.321,0.756
0.119,0.978,0.106,22.092,2.084,2.382
0.119,0.970,0.114,21.038,0.076,3.458
0.130,0.968,0.106,20.924,-1.855,4.771
0.134,0.965,0.116,21.229,-2.061,5.504
0.128,0.960,0.111,22.061,-3.443,5.641
0.129,0.969,0.109,22.550,-4.824,5.618
0.139,0.969,0.106,23.137,-4.756,5.779
0.141,0.970,0.101,24.252,-3.763,6.145
0.144,0.973,0.096,24.481,-1.794,6.908
0.148,0.972,0.095,24.061,-1.282,7.252
0.156,0.979,0.103,24.099,-0.099,7.107
0.153,0.978,0.093,23.908,-0.771,6.718
0.149,0.970,0.083,23.550,-2.565,5.863
0.159,0.964,0.096,23.122,-4.641,5.618
0.165,0.965,0.060,22.954,-6.137,5.153
0.170,0.977,0.064,22.756,-6.092,4.718
0.171,0.975,0.072,23.115,-4.374,4.107
0.168,0.964,0.058,23.260,-2.511,3.893
0.167,0.970,0.064,23.153,-1.733,3.481
0.171,0.969,0.062,22.153,-2.458,3.046
0.161,0.968,0.043,21.145,-4.748,1.771
0.161,0.971,0.042,19.664,-6.412,0.588
0.171,0.976,0.044,18.466,-6.969,-0.107

-0.239,-0.237,1.223,-250.137,250.130,-151.878
-0.499,-0.328,1.653,-250.137,250.130,-165.244
-0.750,-0.392,2.000,-250.137,205.969,-164.359
-0.830,-0.303,2.000,-250.137,160.962,-152.038
-0.903,-0.204,2.000,-169.321,125.252,-125.779
-1.025,-0.125,2.000,-75.076,86.069,-93.336
-1.099,-0.113,2.000,-2.809,37.382,-62.947
-1.101,-0.073,2.000,62.389,-19.076,-26.321
-0.993,-0.038,2.000,111.137,-65.893,9.847
-0.858,-0.016,1.878,144.000,-85.992,40.664
-0.684,0.042,1.574,171.351,-90.427,72.672
-0.531,0.068,1.329,189.168,-89.863,97.168
-0.405,0.088,1.161,200.000,-89.878,112.076
-0.303,0.113,0.963,208.389,-87.038,119.473
-0.238,0.158,0.857,213.901,-87.458,121.176
-0.156,0.191,0.727,218.237,-86.878,119.145
-0.088,0.242,0.633,218.252,-81.878,113.954
-0.047,0.303,0.572,213.458,-74.534,106.977
-0.014,0.361,0.533,203.473,-63.412,96.725
-0.009,0.429,0.516,193.084,-55.763,86.870
0.015,0.461,0.493,179.847,-48.023,75.740
0.023,0.504,0.467,165.611,-40.580,63.725
0.018,0.520,0.463,152.511,-35.565,51.748
0.009,0.548,0.452,141.397,-34.588,41.893
0.000,0.571,0.444,132.168,-35.366,33.511
-0.010,0.601,0.420,123.458,-34.962,25.870
-0.001,0.626,0.432,114.336,-32.687,20.053
-0.005,0.665,0.421,105.336,-27.809,17.496
0.014,0.697,0.423,99.000,-21.053,18.641
0.026,0.716,0.422,93.870,-9.779,22.527
0.027,0.734,0.432,89.824,-1.962,26.412
0.026,0.745,0.440,86.710,3.076,29.458
0.026,0.742,0.452,83.893,5.695,31.740
0.031,0.752,0.460,80.458,4.687,32.550
0.028,0.763,0.483,77.168,2.237,32.008
0.033,0.769,0.475,74.443,-2.237,31.351
0.065,0.772,0.474,72.137,-6.069,30.519
0.070,0.762,0.479,71.901,-7.023,29.130
0.076,0.780,0.482,72.397,-8.733,27.321
0.085,0.776,0.474,73.321,-10.053,25.756
0.085,0.788,0.481,74.718,-11.611,23.962
0.085,0.790,0.459,76.489,-12.336,21.626
0.087,0.800,0.453,78.733,-12.916,18.779
0.091,0.811,0.433,81.115,-13.336,17.115
0.090,0.812,0.427,83.031,-13.252,15.725
0.082,0.826,0.412,84.252,-14.214,14.221
0.095,0.838,0.397,84.771,-15.221,13.710
0.088,0.840,0.396,84.519,-15.901,13.130
0.080,0.850,0.376,84.023,-15.824,12.176
0.088,0.868,0.360,83.206,-18.031,11.458
0.086,0.867,0.337,83.473,-21.046,11.267
0.098,0.866,0.313,84.069,-23.290,11.244
0.110,0.869,0.284,84.466,-24.855,11.733
0.111,0.874,0.262,83.290,-25.771,11.550
0.133,0.885,0.235,80.130,-24.267,10.092
0.125,0.893,0.223,75.641,-21.069,7.664
0.127,0.917,0.217,70.458,-22.336,4.908
0.130,0.917,0.200,67.107,-17.580,3.130
0.121,0.925,0.188,65.053,-15.191,2.214
0.115,0.921,0.187,62.901,-14.038,2.176
0.118,0.931,0.179,60.595,-14.649,2.733
0.120,0.933,0.176,57.916,-13.336,2.542
0.124,0.926,0.159,55.618,-12.802,2.305
0.113,0.934,0.159,52.595,-13.802,1.420
0.111,0.940,0.146,49.282,-14.824,0.321
0.109,0.950,0.148,45.779,-13.458,-0.618
0.115,0.963,0.143,42.824,-9.466,-0.969
0.105,0.958,0.149,40.756,-7.099,-0.328
0.110,0.959,0.135,38.275,-5.427,0.656
0.102,0.959,0.144,37.229,-4.947,1.435
0.102,0.963,0.129,36.611,-4.176,2.130
0.108,0.950,0.139,36.214,-4.855,2.664
0.103,0.963,0.130,35.527,-6.168,2.710
0.104,0.964,0.132,35.382,-7.733,2.908
0.111,0.959,0.138,35.092,-8.641,3.305
0.114,0.965,0.140,34.603,-10.145,3.725
0.107,0.958,0.120,35.275,-11.725,3.908
0.115,0.958,0.119,35.832,-12.641,4.198
0.120,0.957,0.111,36.557,-12.137,4.710
0.131,0.955,0.089,36.710,-10.977,4.870
0.131,0.963,0.083,36.527,-9.435,4.603
0.122,0.973,0.083,35.863,-9.115,4.168
0.127,0.971,0.092,34.519,-9.290,3.443
0.141,0.969,0.071,32.992,-8.809,3.237
0.135,0.973,0.063,31.527,-9.527,2.649
0.133,0.978,0.061,29.511,-9.977,1.931
0.133,0.983,0.050,27.832,-8.885,1.267
0.135,0.977,0.048,26.046,-7.069,0.626
0.144,0.981,0.015,24.420,-5.603,0.542
0.140,0.981,0.031,22.962,-4.527,0.099
0.137,0.984,0.023,21.901,-4.191,-0.366
0.121,0.964,0.028,20.206,-4.092,-0.878
0.133,0.991,0.035,17.550,-2.626,-0.573
0.129,0.986,0.032,15.122,-1.664,-0.191
0.131,0.985,0.029,12.901,1.664,-0.122
0.126,0.994,0.033,11.252,1.931,-0.313
0.119,0.987,0.038,10.053,-1.336,-0.473
0.127,0.985,0.030,8.969,-3.641,-0.053
0.127,0.982,0.018,8.466,-3.779,-0.076
0.128,0.982,0.027,8.359,-2.084,0.191
0.131,0.986,0.025,8.153,-0.947,0.588
0.131,0.990,0.020,7.595,0.084,0.511
0.131,0.982,0.031,6.908,0.649,0.603
0.127,0.992,0.024,5.931,0.496,0.450
0.131,0.990,0.019,4.115,0.870,0.489
0.134,0.992,0.031,2.718,1.344,0.611
0.129,0.995,0.037,1.763,2.458,0.244
0.130,0.988,0.039,1.305,3.061,-0.176
0.128,0.986,0.041,0.878,3.527,-0.611
0.132,0.992,0.044,0.840,4.191,-0.779
0.133,0.990,0.043,0.878,4.336,-0.733
0.126,0.985,0.041,0.977,4.130,-0.313
0.128,0.986,0.042,0.351,3.908,0.191
0.130,0.997,0.042,-0.244,4.099,0.504
0.135,0.991,0.043,-0.725,4.351,1.130
0.141,0.981,0.048,-1.000,3.809,1.443
0.146,0.978,0.033,-1.008,4.527,1.458
0.149,0.983,0.053,-1.427,6.626,0.794
0.153,0.977,0.041,-1.763,7.817,-0.260

0.290,0.861,-0.674,-59.947,-42.534,-28.527
0.324,0.877,-0.769,-102.542,-25.763,-29.771
0.311,0.839,-0.838,-157.580,-1.458,-32.847
0.280,0.806,-0.817,-228.992,30.191,-41.450
0.228,0.743,-0.778,-250.137,57.687,-53.275
0.161,0.576,-0.702,-250.137,86.038,-66.191
0.082,0.394,-0.571,-250.137,113.992,-79.405
0.034,0.254,-0.367,-250.137,136.695,-89.496
-0.009,0.152,-0.171,-250.137,148.992,-97.321
-0.068,0.048,0.058,-250.137,156.985,-105.763
-0.095,-0.049,0.223,-250.137,161.939,-113.916
-0.153,-0.130,0.431,-250.137,172.237,-123.092
-0.174,-0.161,0.658,-250.137,186.450,-131.977
-0.258,-0.216,0.939,-250.137,200.771,-141.420
-0.336,-0.245,1.191,-250.137,206.023,-148.771
-0.461,-0.280,1.469,-250.137,202.763,-152.252
-0.637,-0.364,1.729,-250.137,192.107,-153.458
-0.772,-0.355,2.000,-250.137,180.947,-149.679
-0.899,-0.342,2.000,-224.000,169.954,-141.771
-1.021,-0.293,2.000,-143.649,144.168,-126.282
-1.174,-0.252,2.000,-56.809,87.214,-98.313
-1.223,-0.217,2.000,-0.008,36.634,-71.794
-1.205,-0.177,2.000,49.992,-21.298,-37.954
-1.109,-0.171,2.000,84.817,-66.328,-5.122
-0.974,-0.123,1.778,113.237,-87.893,26.702
-0.852,-0.081,1.576,135.053,-93.863,54.237
-0.734,-0.032,1.390,152.863,-97.817,79.718
-0.601,0.010,1.229,163.550,-99.634,96.962
-0.486,0.058,1.067,170.580,-93.985,108.733
-0.373,0.119,0.948,176.130,-83.053,117.038
-0.311,0.152,0.869,179.221,-73.061,120.336
-0.255,0.197,0.805,180.802,-67.008,120.137
-0.209,0.247,0.754,181.244,-64.137,117.000
-0.171,0.280,0.688,181.611,-63.504,112.053
-0.133,0.313,0.655,180.328,-59.031,105.366
-0.123,0.340,0.621,178.550,-57.611,98.855
-0.109,0.360,0.590,175.038,-53.672,91.153
-0.107,0.393,0.573,169.557,-50.740,80.939
-0.100,0.422,0.554,163.305,-51.069,71.145
-0.092,0.461,0.534,155.015,-49.427,61.214
-0.065,0.500,0.509,146.298,-44.916,53.649
-0.050,0.534,0.497,137.565,-38.840,48.313
-0.054,0.568,0.488,129.092,-33.977,44.389
-0.035,0.595,0.483,120.023,-28.687,42.076
-0.030,0.618,0.501,109.832,-23.473,41.634
-0.015,0.643,0.507,100.733,-19.542,41.969
-0.001,0.666,0.506,94.779,-16.748,42.786
0.014,0.672,0.529,89.908,-14.275,43.977
0.024,0.662,0.535,86.168,-13.412,44.908
0.036,0.659,0.548,82.679,-15.374,43.687
0.053,0.674,0.539,80.122,-17.000,41.580
0.066,0.692,0.548,77.924,-18.809,38.160
0.084,0.698,0.525,76.641,-18.992,34.809
0.101,0.701,0.533,76.076,-18.221,31.939
0.107,0.705,0.538,75.496,-18.405,28.374
0.108,0.713,0.505,75.000,-17.046,23.664
0.113,0.730,0.504,74.626,-16.649,18.733
0.095,0.735,0.497,74.534,-18.649,13.168
0.085,0.739,0.498,74.000,-21.656,8.786
0.074,0.752,0.469,73.687,-22.603,4.076
0.063,0.770,0.450,73.076,-20.359,0.939
0.065,0.786,0.436,72.145,-18.557,-0.435
0.061,0.795,0.424,71.099,-16.038,-1.038
0.048,0.812,0.416,70.550,-14.580,-1.557
0.028,0.819,0.406,69.137,-12.947,-2.290
0.020,0.827,0.391,67.183,-13.351,-2.763
0.014,0.840,0.385,64.672,-13.351,-2.412
0.018,0.852,0.385,62.901,-13.229,-1.221
0.002,0.856,0.391,60.893,-14.244,0.183
0.011,0.860,0.367,59.038,-15.389,1.641
0.012,0.863,0.353,57.534,-12.809,3.359
0.018,0.870,0.345,55.489,-10.550,5.275
0.006,0.876,0.347,52.779,-11.313,6.718
0.018,0.876,0.341,50.710,-10.168,7.840
0.019,0.885,0.344,49.481,-8.794,8.534
0.012,0.881,0.337,48.916,-8.939,8.802
0.021,0.896,0.336,48.573,-8.466,9.336
0.026,0.887,0.334,47.962,-8.626,9.878
0.032,0.889,0.320,46.748,-8.290,10.977
0.043,0.894,0.312,45.107,-4.366,11.771
0.035,0.899,0.329,43.458,-5.115,11.290
0.056,0.903,0.328,42.405,-4.786,11.511
0.049,0.902,0.332,42.092,-3.977,11.809
0.065,0.904,0.333,41.679,-3.221,12.290
0.058,0.914,0.335,41.023,-4.573,12.298
0.063,0.911,0.326,41.260,-7.863,11.908
0.078,0.907,0.322,42.092,-8.679,11.885
0.071,0.917,0.298,42.840,-8.794,11.008
0.074,0.914,0.307,42.542,-9.137,10.252
0.076,0.909,0.296,42.321,-9.496,9.802
0.089,0.917,0.291,42.359,-7.130,9.771
0.086,0.922,0.277,43.313,-4.962,9.817
0.088,0.925,0.287,43.969,-4.893,9.534
0.082,0.924,0.272,44.641,-7.038,8.885
0.095,0.925,0.269,45.267,-7.748,8.397
0.090,0.935,0.248,46.069,-9.473,8.519
0.089,0.928,0.229,46.382,-12.237,8.748
0.087,0.933,0.213,46.206,-15.160,9.107
0.099,0.936,0.196,45.427,-13.840,8.870
0.102,0.944,0.197,44.237,-12.168,8.237
0.100,0.936,0.182,42.840,-12.672,8.153
0.109,0.942,0.173,41.389,-13.863,7.466
0.106,0.939,0.170,40.053,-13.489,6.687
0.111,0.948,0.161,38.557,-12.702,5.939
0.112,0.954,0.155,37.252,-12.130,5.359
0.112,0.951,0.152,36.618,-10.985,4.679
0.111,0.949,0.152,35.511,-8.198,4.153
0.104,0.958,0.153,34.649,-4.725,3.550
0.101,0.959,0.152,33.542,-4.672,3.015
0.093,0.960,0.145,32.198,-6.718,2.809
0.097,0.954,0.140,30.573,-7.344,2.450
0.095,0.970,0.125,28.794,-6.313,2.336
0.088,0.974,0.117,26.939,-7.046,2.504
0.093,0.971,0.122,24.878,-8.344,3.130
0.093,0.971,0.121,23.008,-7.733,3.840
0.097,0.979,0.115,21.557,-4.939,4.130
0.099,0.974,0.109,20.740,-3.198,4.733
0.094,0.970,0.111,19.427,-2.176,4.725
0.093,0.976,0.112,18.298,-2.084,4.053

0.227,0.787,-0.679,0.458,-95.435,1.206
0.309,0.817,-0.901,-25.954,-68.336,-3.206
0.328,0.842,-1.097,-72.099,-24.031,-8.305
0.270,0.773,-1.195,-143.641,41.969,-17.656
0.276,0.739,-1.291,-241.061,118.206,-31.000
0.148,0.572,-1.242,-250.137,183.595,-51.748
0.036,0.271,-1.102,-250.137,218.595,-72.611
-0.062,0.013,-0.848,-250.137,234.969,-87.893
-0.158,-0.251,-0.581,-250.137,239.802,-94.427
-0.201,-0.485,-0.247,-250.137,246.176,-98.855
-0.181,-0.628,0.182,-250.137,250.130,-103.221
-0.154,-0.690,0.637,-250.137,250.130,-108.061
-0.147,-0.776,1.332,-250.137,250.130,-109.511
-0.267,-0.552,2.000,-250.137,244.275,-114.748
-0.416,-0.438,2.000,-250.137,219.809,-123.702
-0.603,-0.290,2.000,-250.137,185.595,-126.802
-0.816,-0.267,2.000,-127.313,136.580,-119.183
-0.993,-0.226,2.000,-41.473,78.435,-104.916
-1.102,-0.198,2.000,15.504,16.244,-84.885
-1.095,-0.176,2.000,52.221,-43.466,-58.573
-0.985,-0.131,2.000,76.611,-74.038,-28.710
-0.866,-0.090,1.961,94.504,-82.740,1.412
-0.749,-0.043,1.748,109.427,-88.519,28.618
-0.621,0.000,1.557,123.634,-87.840,51.427
-0.443,0.064,1.364,140.008,-79.076,73.031
-0.350,0.106,1.240,152.496,-70.107,84.878
-0.251,0.142,1.115,166.695,-62.275,93.137
-0.196,0.157,1.011,177.916,-60.130,96.237
-0.159,0.201,0.919,189.069,-65.603,94.649
-0.122,0.221,0.847,197.053,-73.107,90.076
-0.094,0.245,0.778,201.863,-76.885,84.305
-0.039,0.287,0.695,204.687,-74.740,76.664
-0.027,0.316,0.630,205.290,-69.580,69.038
-0.022,0.352,0.591,203.725,-64.916,59.977
-0.045,0.398,0.542,199.855,-62.718,49.863
-0.061,0.434,0.519,193.420,-62.412,39.053
-0.067,0.465,0.498,185.519,-60.649,29.992
-0.059,0.509,0.474,176.656,-56.481,23.794
-0.050,0.542,0.447,167.382,-49.435,20.046
-0.065,0.574,0.451,158.130,-42.779,18.870
-0.061,0.605,0.443,146.443,-36.298,19.603
-0.060,0.643,0.440,137.931,-32.656,21.748
-0.051,0.661,0.435,131.015,-27.603,24.626
-0.033,0.679,0.447,124.901,-22.542,28.618
-0.012,0.697,0.444,119.359,-18.244,33.702
0.005,0.712,0.450,115.015,-16.412,37.573
0.020,0.725,0.454,110.924,-15.107,40.611
0.040,0.727,0.462,107.733,-14.573,41.748
0.047,0.735,0.463,104.786,-14.221,41.664
0.062,0.743,0.459,101.458,-15.504,41.130
0.068,0.759,0.469,98.244,-19.420,39.779
0.090,0.776,0.483,95.893,-23.565,39.176
0.113,0.771,0.469,95.687,-26.947,39.618
0.126,0.781,0.473,97.336,-29.069,40.573
0.120,0.777,0.473,100.939,-32.198,40.901
0.134,0.774,0.457,105.870,-36.863,40.733
0.145,0.775,0.449,111.954,-41.855,39.397
0.165,0.769,0.440,116.634,-45.702,37.481
0.177,0.771,0.417,121.313,-46.031,34.931
0.192,0.779,0.383,124.427,-43.260,31.542
0.208,0.794,0.359,125.168,-39.557,27.519
0.198,0.806,0.336,124.588,-37.351,23.374
0.215,0.817,0.326,123.634,-34.504,18.779
0.197,0.831,0.299,121.924,-33.069,13.649
0.193,0.843,0.275,119.168,-30.389,8.046
0.183,0.862,0.238,116.122,-28.344,3.420
0.184,0.885,0.224,112.718,-26.076,-0.298
0.159,0.882,0.212,110.557,-21.885,-3.977
0.164,0.900,0.185,107.107,-19.092,-6.275
0.167,0.908,0.185,104.244,-17.275,-6.588
0.162,0.910,0.174,101.824,-15.397,-6.099
0.154,0.917,0.162,99.191,-14.527,-5.061
0.153,0.921,0.153,96.969,-15.374,-4.496
0.161,0.929,0.142,94.153,-15.954,-3.603
0.156,0.924,0.121,91.160,-16.229,-3.588
0.148,0.935,0.113,87.702,-18.656,-4.382
0.146,0.941,0.099,84.893,-19.733,-5.160
0.146,0.939,0.077,82.786,-20.092,-5.878
0.142,0.941,0.060,80.672,-19.947,-6.405
0.150,0.956,0.038,77.817,-17.015,-6.435
0.146,0.966,0.041,74.931,-13.954,-6.702
0.139,0.956,0.015,71.649,-14.008,-6.565
0.137,0.957,0.023,69.046,-14.145,-6.489
0.133,0.967,0.002,65.702,-14.695,-6.435
0.128,0.973,-0.009,62.954,-14.511,-6.359
0.130,0.979,-0.022,59.779,-14.763,-5.756
0.132,0.979,-0.035,56.527,-13.244,-5.008
0.131,0.979,-0.044,53.321,-12.649,-3.832
0.139,0.976,-0.055,49.962,-12.756,-2.107
0.142,0.987,-0.056,46.260,-11.412,-0.145
0.146,0.986,-0.073,42.260,-12.053,1.519
0.157,0.983,-0.077,38.580,-11.489,3.168
0.161,0.983,-0.083,34.084,-9.137,4.122
0.161,0.985,-0.090,30.282,-7.511,4.191
0.174,0.978,-0.093,27.046,-5.931,4.038
0.176,0.979,-0.088,23.847,-3.351,3.389
0.172,0.979,-0.096,21.115,-1.641,2.489
0.173,0.982,-0.092,18.809,-1.168,1.702
0.185,0.982,-0.090,16.359,-2.000,1.122
0.181,0.980,-0.092,14.321,-1.695,0.954
0.181,0.977,-0.087,12.282,-0.878,0.916
0.182,0.972,-0.098,10.756,-0.519,0.863
0.173,0.964,-0.097,9.794,-0.344,0.458
0.182,0.972,-0.094,8.336,-0.145,0.000
0.181,0.980,-0.095,7.099,0.588,-0.580
0.177,0.982,-0.103,5.260,0.496,-1.153
0.179,0.976,-0.093,3.969,1.168,-1.435
0.183,0.984,-0.091,2.603,2.573,-2.023
0.179,0.979,-0.083,1.588,5.076,-3.084
0.177,0.979,-0.084,1.084,5.924,-4.176
0.167,0.987,-0.069,0.389,6.214,-4.794
0.166,0.987,-0.072,-0.626,5.656,-5.298
0.161,0.990,-0.059,-1.603,4.870,-5.473
0.155,0.995,-0.056,-2.519,3.847,-5.153
0.153,0.991,-0.058,-3.015,3.336,-4.458
0.154,0.993,-0.064,-2.893,3.420,-3.809
0.150,0.993,-0.057,-2.977,4.115,-2.824
0.147,0.993,-0.053,-2.924,5.221,-2.107
0.150,0.995,-0.050,-3.099,5.443,-1.618

0.267,0.785,-0.754,-150.382,5.939,-2.412
0.262,0.755,-0.765,-196.542,31.275,-10.031
0.230,0.743,-0.764,-244.023,46.847,-19.863
0.222,0.654,-0.710,-250.137,67.198,-28.443
0.190,0.577,-0.664,-250.137,94.405,-36.420
0.138,0.443,-0.536,-250.137,122.893,-44.527
0.059,0.284,-0.348,-250.137,143.061,-53.947
-0.034,0.148,-0.163,-250.137,151.641,-64.824
-0.050,0.108,0.065,-250.137,158.344,-74.176
-0.101,0.038,0.314,-250.137,168.008,-80.855
-0.097,-0.093,0.464,-250.137,177.656,-86.458
-0.119,-0.170,0.701,-250.137,183.527,-90.374
-0.110,-0.238,0.894,-250.137,200.985,-96.305
-0.163,-0.333,1.181,-250.137,221.511,-103.290
-0.276,-0.357,1.453,-250.137,236.229,-114.023
-0.420,-0.368,1.794,-250.137,233.290,-125.031
-0.550,-0.378,2.000,-250.137,216.328,-128.595
-0.721,-0.309,2.000,-250.137,182.916,-125.725
-0.885,-0.225,2.000,-163.145,138.008,-110.336
-0.977,-0.165,2.000,-66.611,80.130,-83.076
-1.014,-0.108,2.000,11.321,19.611,-48.435
-0.985,-0.082,2.000,64.389,-29.153,-15.237
-0.909,-0.070,2.000,105.260,-66.389,14.916
-0.782,-0.057,1.843,136.649,-84.863,40.076
-0.657,-0.024,1.618,158.565,-91.229,58.595
-0.549,0.008,1.398,175.374,-93.534,75.702
-0.448,0.033,1.216,186.733,-93.443,88.588
-0.330,0.085,1.023,194.809,-92.947,98.000
-0.239,0.135,0.878,196.427,-86.198,101.824
-0.177,0.193,0.780,193.847,-77.802,101.893
-0.127,0.242,0.694,189.046,-70.092,99.321
-0.085,0.294,0.622,182.534,-65.130,95.076
-0.048,0.335,0.576,174.618,-59.733,89.328
-0.026,0.359,0.545,164.573,-54.718,82.794
0.002,0.390,0.519,152.786,-45.740,74.565
0.023,0.438,0.514,140.542,-36.359,64.290
0.027,0.462,0.499,128.534,-25.863,53.924
0.026,0.494,0.499,117.244,-19.061,43.359
0.020,0.515,0.507,106.099,-12.366,32.527
0.005,0.544,0.509,98.038,-10.527,23.931
-0.001,0.567,0.511,91.786,-12.382,17.641
-0.010,0.582,0.512,87.038,-14.557,13.908
-0.025,0.609,0.515,82.710,-16.679,12.481
-0.015,0.628,0.520,77.939,-16.137,13.237
-0.003,0.648,0.526,73.046,-13.130,15.992
0.008,0.657,0.536,68.412,-7.763,19.672
0.017,0.666,0.560,64.160,-3.695,23.252
0.026,0.683,0.567,60.908,-0.115,25.718
0.036,0.684,0.579,59.588,3.229,27.191
0.040,0.682,0.578,59.420,3.267,27.527
0.038,0.666,0.600,58.748,1.809,27.198
0.044,0.674,0.598,58.237,-1.008,25.611
0.063,0.687,0.620,58.855,-4.679,23.443
0.075,0.680,0.619,60.313,-5.229,21.511
0.076,0.680,0.618,61.962,-4.550,19.527
0.079,0.698,0.623,63.695,-5.107,16.695
0.065,0.700,0.600,66.099,-8.313,13.298
0.069,0.707,0.608,68.496,-9.969,10.534
0.064,0.720,0.585,71.771,-12.672,7.954
0.052,0.725,0.580,74.786,-14.611,6.130
0.046,0.737,0.557,76.580,-16.954,4.328
0.044,0.751,0.534,77.672,-17.794,3.573
0.050,0.759,0.527,78.435,-16.351,4.382
0.040,0.779,0.521,78.435,-15.412,5.389
0.040,0.784,0.498,78.115,-14.817,6.382
0.044,0.789,0.494,77.977,-13.130,7.046
0.050,0.791,0.482,77.618,-12.023,7.779
0.043,0.797,0.474,77.122,-10.092,8.252
0.058,0.810,0.456,75.802,-10.099,8.328
0.058,0.804,0.446,73.870,-9.916,8.069
0.058,0.810,0.436,70.992,-10.382,6.649
0.056,0.827,0.428,67.901,-10.366,4.863
0.047,0.831,0.431,65.160,-11.748,2.947
0.050,0.832,0.406,63.031,-12.450,1.473
0.052,0.846,0.396,63.305,-10.817,0.435
0.046,0.854,0.395,63.947,-10.557,0.351
0.043,0.853,0.387,64.824,-8.763,0.802
0.035,0.865,0.377,65.504,-9.122,1.458
0.052,0.866,0.370,65.450,-5.038,2.450
0.041,0.876,0.379,64.855,-1.221,2.420
0.039,0.882,0.375,64.092,-1.427,2.397
0.032,0.895,0.363,64.450,-1.679,3.382
0.038,0.896,0.358,65.267,-1.969,4.595
0.042,0.904,0.357,66.389,-3.275,5.863
0.043,0.900,0.337,68.389,-6.427,7.954
0.053,0.903,0.338,69.809,-8.977,9.252
0.048,0.904,0.316,71.260,-11.855,10.076
0.046,0.909,0.313,72.733,-15.298,10.695
0.064,0.913,0.302,74.443,-15.321,12.115
0.074,0.923,0.292,76.115,-14.542,13.450
0.076,0.922,0.279,78.427,-13.771,14.435
0.078,0.916,0.260,81.000,-12.603,15.771
0.088,0.918,0.240,82.916,-13.015,16.359
0.084,0.931,0.245,84.336,-16.023,15.832
0.086,0.927,0.222,85.504,-19.542,14.931
0.087,0.927,0.214,86.023,-22.603,14.527
0.100,0.929,0.177,86.084,-24.595,14.084
0.105,0.936,0.169,85.924,-26.382,14.130
0.118,0.943,0.140,85.267,-27.137,14.519
0.125,0.946,0.111,83.878,-28.931,14.427
0.136,0.936,0.086,83.168,-27.435,13.275
0.131,0.942,0.074,81.412,-26.107,11.595
0.135,0.948,0.056,79.252,-26.885,9.878
0.143,0.952,0.037,76.573,-26.206,8.466
0.153,0.957,0.012,72.137,-22.534,7.305
0.154,0.967,-0.000,66.832,-20.802,5.718
0.146,0.967,-0.024,61.557,-19.344,4.382
0.151,0.964,-0.025,57.076,-15.794,3.015
0.146,0.977,-0.032,51.954,-13.702,1.794
0.151,0.971,-0.041,47.206,-12.634,1.298
0.141,0.984,-0.040,43.611,-10.664,0.947
0.142,0.983,-0.064,40.115,-9.641,0.008
0.145,0.970,-0.062,37.664,-8.748,-0.183
0.144,0.977,-0.052,34.344,-8.305,-0.084
0.146,0.981,-0.060,30.061,-8.069,-0.710
0.137,0.975,-0.072,25.664,-7.931,-1.450
0.140,0.983,-0.074,20.977,-6.176,-2.061
0.131,0.988,-0.076,16.252,-6.053,-2.557
0.135,0.986,-0.081,12.168,-5.656,-2.832

0.310,0.945,-0.559,-66.527,-39.046,-22.496
0.311,0.928,-0.651,-99.298,-21.511,-29.672
0.267,0.859,-0.763,-137.290,-1.008,-37.595
0.237,0.792,-0.838,-172.489,14.779,-43.924
0.208,0.690,-0.924,-218.099,34.198,-50.855
0.198,0.653,-0.931,-250.137,61.137,-58.641
0.174,0.571,-0.849,-250.137,87.511,-64.000
0.091,0.445,-0.757,-250.137,104.779,-71.840
-0.027,0.291,-0.591,-250.137,116.557,-82.053
-0.067,0.175,-0.392,-250.137,122.573,-89.573
-0.119,0.080,-0.157,-250.137,128.366,-96.420
-0.129,0.034,0.086,-250.137,135.443,-102.053
-0.125,-0.024,0.341,-250.137,147.076,-105.962
-0.163,-0.051,0.636,-250.137,160.397,-109.695
-0.208,-0.116,0.888,-250.137,172.618,-112.191
-0.280,-0.131,1.176,-250.137,191.542,-114.931
-0.391,-0.172,1.547,-250.137,203.740,-116.557
-0.563,-0.239,1.853,-250.137,198.649,-116.756
-0.709,-0.277,2.000,-250.137,180.336,-114.985
-0.858,-0.224,2.000,-216.939,151.267,-110.649
-0.978,-0.177,2.000,-144.626,112.107,-98.183
-1.038,-0.130,2.000,-76.817,63.786,-76.863
-1.036,-0.080,2.000,-16.603,16.977,-48.076
-0.996,-0.051,2.000,34.084,-25.107,-16.168
-0.932,-0.036,2.000,71.786,-52.603,10.351
-0.836,-0.005,1.874,106.679,-69.687,37.229
-0.721,0.016,1.653,133.458,-76.939,60.313
-0.597,0.053,1.425,153.878,-83.328,80.527
-0.499,0.088,1.280,165.588,-88.000,93.122
-0.383,0.146,1.117,174.679,-88.893,102.809
-0.292,0.180,0.980,181.176,-83.557,108.115
-0.219,0.219,0.877,185.137,-78.672,108.641
-0.141,0.261,0.792,187.214,-73.351,106.573
-0.098,0.294,0.718,188.588,-67.626,101.992
-0.073,0.325,0.662,187.794,-60.084,94.634
-0.059,0.353,0.614,186.053,-54.901,86.893
-0.052,0.393,0.586,181.481,-50.473,75.878
-0.044,0.439,0.574,175.366,-48.206,64.527
-0.036,0.463,0.546,168.985,-44.840,54.878
-0.046,0.493,0.525,161.214,-39.985,44.985
-0.052,0.521,0.507,153.313,-36.634,36.443
-0.052,0.556,0.493,146.344,-33.221,29.969
-0.061,0.591,0.477,138.145,-30.618,24.168
-0.062,0.612,0.470,131.183,-27.779,21.450
-0.052,0.641,0.464,124.275,-22.947,21.046
-0.050,0.667,0.469,118.176,-19.412,21.519
-0.050,0.698,0.473,111.977,-18.947,23.015
-0.033,0.713,0.471,106.328,-15.779,25.985
-0.013,0.728,0.489,102.519,-12.008,29.267
-0.012,0.735,0.505,98.359,-8.031,31.977
0.002,0.749,0.514,95.771,-6.344,33.947
0.009,0.751,0.532,96.466,-6.687,35.015
0.017,0.761,0.543,99.496,-10.366,35.237
0.025,0.762,0.547,104.275,-13.695,35.908
0.030,0.772,0.537,110.313,-17.947,36.496
0.042,0.761,0.529,116.763,-20.328,37.237
0.040,0.766,0.509,122.565,-23.855,37.832
0.052,0.765,0.486,126.672,-28.031,37.031
0.058,0.780,0.437,130.573,-32.519,34.802
0.064,0.788,0.403,132.641,-34.137,31.626
0.049,0.794,0.376,132.595,-37.344,27.771
0.045,0.809,0.348,131.099,-41.580,23.359
0.057,0.848,0.302,129.573,-43.160,19.748
0.055,0.852,0.272,128.198,-44.931,16.802
0.090,0.900,0.268,127.634,-40.382,15.305
0.039,0.854,0.233,128.008,-37.679,12.634
0.059,0.865,0.203,125.901,-37.282,11.435
0.056,0.895,0.199,123.084,-36.489,11.542
0.070,0.905,0.163,119.870,-31.824,12.160
0.070,0.921,0.145,116.992,-25.763,13.092
0.068,0.928,0.147,113.290,-22.771,14.695
0.073,0.922,0.130,108.947,-19.809,15.855
0.073,0.926,0.117,104.832,-18.756,16.611
0.084,0.938,0.102,100.298,-18.321,16.260
0.093,0.951,0.082,96.183,-17.076,15.344
0.102,0.947,0.079,92.947,-14.672,14.275
0.106,0.956,0.073,88.840,-14.229,12.489
0.094,0.964,0.052,85.641,-15.137,10.282
0.102,0.969,0.047,82.817,-14.344,8.870
0.113,0.960,0.039,80.519,-14.672,7.710
0.110,0.964,0.031,78.695,-14.145,7.511
0.113,0.959,0.008,77.450,-12.305,7.481
0.122,0.974,0.009,76.053,-10.626,7.550
0.112,0.958,-0.003,74.893,-10.359,7.275
0.110,0.958,-0.018,73.588,-10.389,6.840
0.111,0.976,-0.026,71.840,-11.588,6.489
0.114,0.975,-0.040,70.214,-11.603,6.656
0.129,0.979,-0.047,68.244,-11.344,6.824
0.132,0.974,-0.059,66.748,-9.473,7.481
0.139,0.980,-0.067,64.817,-7.260,8.092
0.127,0.981,-0.059,61.931,-7.053,7.824
0.127,0.977,-0.065,58.603,-8.863,7.405
0.127,0.987,-0.077,56.053,-11.221,6.947
0.128,0.981,-0.094,53.824,-14.252,5.977
0.122,0.979,-0.111,51.573,-17.237,5.481
0.142,0.982,-0.137,50.137,-17.290,5.366
0.149,0.973,-0.167,49.336,-14.756,4.992
0.132,0.967,-0.155,48.282,-11.298,4.901
0.146,0.974,-0.166,46.466,-7.924,4.817
0.167,0.984,-0.187,43.718,-4.710,4.443
0.163,0.982,-0.163,39.962,-2.275,3.473
0.156,0.987,-0.172,35.550,-1.748,1.687
0.152,0.983,-0.176,31.565,-1.802,-0.191
0.148,0.986,-0.192,27.489,-2.962,-2.496
0.146,0.987,-0.190,23.840,-3.618,-3.863
0.146,0.992,-0.193,19.969,-2.969,-5.031
0.135,0.993,-0.203,17.000,-0.809,-4.977
0.137,0.992,-0.209,14.221,1.672,-4.481
0.132,0.987,-0.208,11.458,3.183,-3.443
0.127,0.991,-0.208,8.809,3.870,-2.557
0.121,0.992,-0.195,5.511,3.809,-1.595
0.126,0.996,-0.203,2.672,3.779,-0.809
0.130,0.989,-0.204,0.550,4.153,0.046
0.136,0.988,-0.187,-1.305,5.053,0.504
0.127,0.988,-0.190,-3.244,4.664,1.130
0.134,0.985,-0.178,-4.679,4.481,1.229
0.131,0.985,-0.189,-4.977,3.962,1.099
0.132,0.980,-0.188,-4.939,3.260,0.931
0.132,0.976,-0.168,-4.641,1.931,1.069

-0.477,0.158,1.251,-250.137,228.198,-169.458
-0.623,0.203,1.538,-250.137,199.015,-162.076
-0.757,0.269,1.781,-250.137,159.130,-147.802
-0.887,0.266,1.963,-200.237,110.786,-127.740
-1.006,0.206,2.000,-134.756,55.237,-99.153
-1.060,0.189,2.000,-91.229,14.794,-72.130
-1.062,0.180,1.960,-55.985,-21.229,-44.710
-1.019,0.183,1.865,-24.519,-48.435,-17.366
-0.931,0.186,1.762,4.115,-65.427,11.092
-0.821,0.206,1.670,29.351,-71.740,39.160
-0.715,0.237,1.570,51.466,-73.527,63.489
-0.620,0.241,1.456,72.557,-75.229,82.321
-0.498,0.263,1.336,94.130,-78.557,96.351
-0.399,0.279,1.198,111.473,-83.115,103.656
-0.311,0.311,1.075,126.122,-88.145,106.611
-0.230,0.354,0.957,138.290,-94.427,105.305
-0.169,0.367,0.854,147.885,-98.145,101.481
-0.126,0.388,0.769,153.595,-98.221,95.618
-0.092,0.422,0.694,156.191,-95.229,88.527
-0.074,0.446,0.638,156.374,-89.840,79.611
-0.052,0.474,0.586,154.359,-81.771,70.336
-0.045,0.513,0.545,150.557,-73.046,61.176
-0.039,0.540,0.511,145.015,-64.550,52.496
-0.049,0.561,0.494,138.443,-57.198,45.374
-0.043,0.606,0.488,129.824,-49.023,37.107
-0.029,0.622,0.473,123.893,-41.168,32.527
-0.039,0.646,0.462,119.198,-34.702,29.214
-0.039,0.662,0.448,115.137,-29.557,27.550
-0.042,0.690,0.448,110.427,-23.634,26.679
-0.045,0.706,0.443,106.229,-20.237,26.740
-0.044,0.724,0.451,101.595,-17.840,27.618
-0.030,0.738,0.436,96.344,-14.611,29.168
-0.034,0.754,0.435,91.053,-13.481,30.947
-0.026,0.772,0.435,85.992,-14.473,32.412
-0.015,0.772,0.446,80.504,-12.771,34.855
-0.010,0.785,0.443,76.847,-12.832,36.038
0.008,0.787,0.448,73.214,-12.298,37.504
0.006,0.792,0.458,70.046,-11.176,38.336
0.035,0.791,0.447,67.618,-8.206,39.244
0.038,0.802,0.465,66.565,-6.794,39.351
0.052,0.805,0.467,66.954,-5.649,39.160
0.053,0.815,0.469,68.580,-4.863,38.282
0.052,0.812,0.483,71.229,-6.542,37.466
0.063,0.807,0.484,75.015,-10.038,36.649
0.058,0.786,0.463,79.260,-14.076,35.580
0.061,0.790,0.456,83.458,-18.687,33.847
0.062,0.828,0.442,87.511,-24.229,31.160
0.082,0.837,0.421,90.214,-25.901,28.725
0.099,0.847,0.401,92.534,-24.649,27.069
0.101,0.846,0.386,93.748,-24.824,25.779
0.101,0.835,0.364,94.565,-24.481,24.885
0.105,0.854,0.359,94.733,-24.656,23.756
0.102,0.868,0.340,94.740,-23.626,22.420
0.099,0.868,0.326,94.107,-24.458,20.641
0.109,0.887,0.303,92.924,-24.725,19.412
0.109,0.891,0.294,91.947,-24.382,18.366
0.111,0.904,0.285,90.710,-25.008,17.740
0.115,0.919,0.261,90.649,-24.718,17.466
0.111,0.898,0.270,89.229,-23.786,17.000
0.125,0.907,0.255,87.908,-23.527,18.023
0.128,0.917,0.241,87.267,-22.985,18.878
0.137,0.917,0.218,87.771,-21.580,19.313
0.147,0.924,0.194,89.359,-21.069,18.718
0.148,0.918,0.179,90.885,-22.802,17.634
0.159,0.924,0.177,91.969,-25.069,16.351
0.161,0.921,0.157,92.763,-25.893,14.695
0.158,0.922,0.145,93.099,-26.084,12.275
0.165,0.927,0.127,92.847,-27.328,10.053
0.162,0.937,0.106,92.214,-27.832,8.153
0.165,0.943,0.087,90.702,-27.145,6.053
0.167,0.954,0.070,89.183,-26.015,4.229
0.172,0.959,0.051,87.420,-24.496,2.656
0.169,0.962,0.040,85.298,-21.969,1.229
0.164,0.967,0.033,83.053,-20.130,0.145
0.151,0.968,0.013,80.595,-19.809,-0.962
0.144,0.971,0.002,78.840,-20.962,-1.427
0.138,0.968,-0.022,76.832,-21.435,-1.557
0.146,0.975,-0.037,75.061,-20.038,-0.748
0.145,0.981,-0.043,72.985,-17.229,0.672
0.148,0.981,-0.056,70.382,-16.496,2.282
0.150,0.987,-0.064,68.015,-16.374,3.527
0.149,0.984,-0.083,65.153,-15.718,4.405
0.160,0.983,-0.095,62.229,-15.603,4.427
0.160,0.971,-0.100,59.641,-15.115,3.939
0.156,0.977,-0.112,56.779,-14.969,3.588
0.166,0.971,-0.126,53.931,-14.664,2.962
0.157,0.982,-0.131,50.710,-14.534,2.313
0.170,0.986,-0.135,47.725,-12.496,1.718
0.169,0.986,-0.153,45.870,-9.053,1.198
0.162,0.980,-0.151,43.618,-5.183,0.046
0.163,0.978,-0.161,41.405,-5.015,-0.618
0.155,0.974,-0.161,39.458,-5.641,-1.008
0.154,0.978,-0.163,37.527,-4.962,-1.229
0.145,0.975,-0.158,35.565,-6.244,-1.679
0.147,0.978,-0.166,34.206,-7.305,-1.626
0.155,0.970,-0.182,32.924,-7.718,-1.389
0.154,0.975,-0.187,31.802,-6.534,-1.519
0.153,0.980,-0.196,30.786,-5.160,-1.351
0.167,0.983,-0.197,29.634,-2.740,-0.985
0.159,0.987,-0.204,28.137,-0.466,-0.573
0.154,0.985,-0.193,25.863,1.702,-1.084
0.152,0.989,-0.197,22.359,0.954,-1.137
0.148,1.000,-0.193,18.557,-3.504,-0.733
0.161,0.989,-0.197,15.763,-3.840,0.046
0.158,0.995,-0.212,14.260,-2.779,0.504
0.163,0.991,-0.204,13.046,-1.466,1.191
0.164,0.990,-0.206,12.237,0.427,1.573
0.173,0.985,-0.202,11.366,1.786,1.855
0.161,0.979,-0.195,10.336,2.214,1.183
0.161,0.984,-0.193,9.153,1.183,0.382
0.151,0.977,-0.197,8.298,0.046,-0.656
0.157,0.979,-0.207,7.641,-0.473,-1.267
0.154,0.982,-0.204,7.069,-1.198,-1.336
0.151,0.979,-0.207,6.634,-1.115,-0.878
0.150,0.984,-0.208,6.137,-0.099,-0.336
0.154,0.997,-0.216,5.221,1.046,0.305
0.153,0.985,-0.212,4.641,1.008,0.878
0.152,0.988,-0.214,4.389,0.962,1.214
0.157,0.981,-0.214,4.084,1.229,1.336

-0.205,-0.420,1.309,-250.137,250.130,-163.977
-0.511,-0.498,1.777,-250.137,250.130,-178.389
-0.748,-0.518,2.000,-250.137,250.130,-186.382
-0.934,-0.561,2.000,-250.137,233.817,-183.427
-1.095,-0.497,2.000,-153.252,187.969,-169.389
-1.264,-0.407,2.000,-62.702,125.092,-146.214
-1.354,-0.310,2.000,9.466,50.176,-115.359
-1.328,-0.245,2.000,66.084,-29.000,-78.794
-1.211,-0.218,2.000,110.000,-88.321,-39.962
-1.043,-0.168,1.896,144.481,-115.107,-1.748
-0.913,-0.118,1.643,169.237,-133.527,31.763
-0.764,-0.066,1.389,186.321,-150.542,61.634
-0.605,-0.007,1.161,195.863,-153.214,81.015
-0.465,0.068,0.981,201.954,-144.237,95.176
-0.337,0.121,0.844,204.298,-128.481,105.534
-0.254,0.168,0.760,203.496,-112.763,111.626
-0.189,0.208,0.698,200.115,-97.405,114.321
-0.138,0.251,0.641,194.550,-84.183,113.511
-0.105,0.285,0.619,186.748,-72.237,108.702
-0.084,0.319,0.560,179.290,-64.412,101.435
-0.052,0.336,0.527,172.206,-58.931,92.168
-0.065,0.373,0.492,164.710,-54.137,80.809
-0.050,0.408,0.470,154.809,-50.519,66.626
-0.044,0.433,0.450,145.031,-46.214,54.130
-0.031,0.470,0.456,133.061,-38.031,41.237
-0.028,0.485,0.456,121.557,-24.412,31.672
-0.030,0.516,0.460,108.504,-9.053,22.802
-0.038,0.543,0.492,97.588,2.855,16.160
-0.061,0.570,0.504,87.969,11.198,11.267
-0.078,0.596,0.525,80.321,13.809,7.649
-0.081,0.604,0.536,74.435,14.832,6.137
-0.091,0.607,0.555,70.183,13.824,6.191
-0.095,0.621,0.556,66.756,10.130,7.366
-0.108,0.629,0.591,63.893,6.305,9.015
-0.117,0.639,0.607,60.954,2.550,10.969
-0.108,0.647,0.621,58.863,-0.237,12.893
-0.088,0.674,0.617,57.580,-1.527,15.412
-0.082,0.699,0.645,57.878,-1.992,18.634
-0.066,0.705,0.655,60.977,-1.908,22.733
-0.060,0.701,0.670,66.282,-2.374,27.107
-0.060,0.692,0.672,73.298,-3.870,31.031
-0.061,0.678,0.668,80.137,-5.191,34.221
-0.067,0.685,0.681,86.229,-8.947,35.763
-0.060,0.696,0.671,91.092,-14.053,35.947
-0.044,0.703,0.662,95.702,-17.855,35.885
-0.025,0.711,0.636,99.733,-20.328,36.267
-0.029,0.704,0.607,104.542,-22.542,35.893
-0.012,0.721,0.596,107.351,-23.740,35.420
-0.002,0.735,0.572,109.489,-24.031,34.565
0.008,0.740,0.557,110.954,-22.931,33.527
0.022,0.739,0.541,111.405,-18.931,33.000
0.010,0.753,0.524,111.588,-17.763,31.725
0.029,0.781,0.498,112.305,-19.725,30.466
0.030,0.786,0.483,113.458,-19.656,29.977
0.016,0.790,0.459,115.122,-23.366,28.954
0.026,0.803,0.447,116.458,-26.649,28.405
0.040,0.806,0.421,117.229,-28.702,28.137
0.044,0.813,0.413,117.405,-28.198,27.641
0.042,0.835,0.395,116.847,-29.595,26.573
0.046,0.834,0.371,116.344,-32.031,25.794
0.056,0.846,0.343,115.779,-32.107,25.466
0.067,0.854,0.332,114.878,-32.130,24.718
0.075,0.867,0.300,114.534,-31.069,23.641
0.082,0.877,0.276,113.809,-29.466,22.695
0.086,0.869,0.253,112.718,-28.466,21.084
0.085,0.876,0.256,112.099,-27.221,19.252
0.099,0.909,0.247,111.397,-25.817,17.168
0.090,0.884,0.234,111.840,-25.107,14.397
0.095,0.885,0.226,110.008,-22.908,12.206
0.085,0.900,0.211,108.443,-24.405,10.099
0.093,0.916,0.198,107.107,-26.183,8.527
0.097,0.910,0.175,105.947,-26.916,7.344
0.092,0.918,0.152,105.336,-27.260,6.565
0.095,0.921,0.135,104.969,-25.863,5.939
0.095,0.935,0.120,104.313,-25.336,5.260
0.097,0.930,0.099,103.206,-26.176,4.893
0.103,0.937,0.093,100.931,-25.557,5.038
0.103,0.949,0.077,98.733,-24.725,5.237
0.114,0.956,0.063,96.412,-23.802,5.092
0.122,0.965,0.048,94.702,-21.298,5.702
0.116,0.958,0.031,93.481,-18.947,5.794
0.117,0.955,0.031,91.832,-17.389,5.840
0.114,0.965,0.022,89.649,-16.000,5.664
0.124,0.982,0.018,87.344,-14.534,5.053
0.111,0.974,0.007,85.214,-14.832,3.901
0.114,0.960,-0.016,84.160,-16.099,3.427
0.119,0.962,-0.025,83.115,-17.924,3.160
0.123,0.966,-0.037,82.412,-21.511,2.595
0.121,0.958,-0.062,82.344,-25.130,2.198
0.134,0.956,-0.076,81.947,-25.603,2.466
0.134,0.956,-0.093,81.733,-23.351,1.733
0.129,0.962,-0.098,80.893,-20.527,0.328
0.126,0.967,-0.115,79.191,-17.595,-1.359
0.124,0.976,-0.133,76.328,-15.489,-2.794
0.126,0.983,-0.143,72.924,-15.298,-4.519
0.117,0.987,-0.152,69.779,-15.038,-5.405
0.122,0.990,-0.167,66.145,-13.794,-6.168
0.108,0.993,-0.178,61.718,-12.924,-6.992
0.108,1.002,-0.188,57.298,-13.206,-6.947
0.105,1.000,-0.223,52.511,-12.168,-6.634
0.109,0.994,-0.214,48.412,-9.634,-6.374
0.107,0.994,-0.245,44.290,-6.237,-5.771
0.085,0.999,-0.230,40.649,-5.565,-5.305
0.089,0.994,-0.234,35.977,-5.977,-4.260
0.086,0.993,-0.247,31.389,-4.885,-3.145
0.089,0.990,-0.258,27.733,-4.695,-2.000
0.090,0.987,-0.255,23.977,-4.298,-0.420
0.095,0.988,-0.255,20.275,-4.076,0.847
0.106,0.989,-0.262,16.534,-1.779,1.710
0.110,0.984,-0.269,13.542,1.710,1.947
0.099,0.988,-0.263,10.481,4.450,1.282
0.100,0.980,-0.265,7.748,4.985,0.458
0.108,0.983,-0.262,5.053,4.405,0.023
0.101,0.982,-0.257,1.611,4.015,-0.443
0.094,0.983,-0.255,-1.763,3.649,-0.847
0.098,0.991,-0.250,-4.893,3.771,-0.321
0.102,0.995,-0.232,-7.748,5.565,0.290
0.097,0.996,-0.231,-10.008,7.489,0.931
0.115,0.991,-0.217,-11.985,8.244,1.786

0.159,0.780,-0.833,-128.473,-20.885,-4.618
0.163,0.766,-0.935,-164.267,-17.595,-11.496
0.172,0.731,-0.976,-213.290,-2.924,-17.656
0.205,0.729,-0.964,-250.137,27.511,-23.763
0.168,0.648,-0.900,-250.137,60.420,-31.519
0.108,0.524,-0.795,-250.137,95.450,-43.603
0.036,0.352,-0.644,-250.137,127.198,-55.244
-0.052,0.185,-0.455,-250.137,153.260,-66.962
-0.131,0.035,-0.223,-250.137,166.756,-77.626
-0.129,-0.080,0.079,-250.137,170.557,-82.298
-0.125,-0.147,0.295,-250.137,180.023,-83.992
-0.117,-0.190,0.597,-250.137,196.244,-84.427
-0.140,-0.271,0.876,-250.137,205.168,-86.000
-0.190,-0.248,1.227,-250.137,207.466,-91.740
-0.337,-0.290,1.658,-250.137,201.649,-99.534
-0.435,-0.212,1.985,-250.137,186.496,-105.931
-0.554,-0.142,2.000,-250.137,168.565,-108.305
-0.724,-0.160,2.000,-198.046,139.824,-100.000
-0.871,-0.138,2.000,-121.435,98.466,-85.588
-0.964,-0.092,2.000,-40.221,37.695,-63.130
-0.956,-0.036,2.000,17.687,-20.107,-38.794
-0.885,-0.019,2.000,58.534,-57.183,-13.565
-0.781,0.000,1.895,89.931,-73.939,11.809
-0.691,0.042,1.716,111.321,-82.122,33.748
-0.584,0.093,1.519,129.718,-89.534,55.298
-0.461,0.139,1.338,144.489,-93.023,73.412
-0.345,0.184,1.157,156.878,-86.794,88.000
-0.245,0.219,1.029,165.840,-76.885,98.527
-0.155,0.251,0.900,172.198,-66.427,105.031
-0.108,0.288,0.808,175.809,-62.061,105.695
-0.081,0.312,0.750,176.275,-62.038,102.031
-0.053,0.339,0.669,174.832,-66.420,94.901
-0.018,0.374,0.623,171.740,-72.099,85.786
0.026,0.408,0.573,167.336,-71.550,75.710
0.042,0.439,0.532,161.840,-66.313,65.740
0.057,0.468,0.502,154.397,-57.626,54.153
0.053,0.499,0.476,145.107,-47.481,41.863
0.041,0.536,0.448,136.023,-38.939,30.580
0.034,0.564,0.436,125.374,-33.786,19.198
0.031,0.595,0.429,114.031,-29.618,9.840
0.012,0.615,0.430,103.076,-23.519,3.481
0.016,0.659,0.424,91.412,-16.779,-0.588
