aX,aY,aZ,gX,gY,gZ
-0.798,-0.071,0.956,96.977,81.351,126.061
-0.755,-0.107,0.884,107.420,86.656,143.695
-0.712,-0.124,0.809,110.733,85.015,157.779
-0.536,-0.077,0.632,109.061,66.748,170.420
-0.375,-0.007,0.536,108.153,49.885,177.618
-0.134,0.100,0.420,103.359,32.832,177.817
0.146,0.112,0.245,94.366,27.153,172.450
0.309,0.237,0.007,84.107,18.176,164.489
0.439,0.275,-0.234,70.809,-11.023,149.985
0.564,0.179,-0.526,54.573,-53.748,119.046
0.716,0.334,-0.484,17.893,-86.595,69.397
0.697,0.629,-0.352,-48.046,-72.130,21.802
0.606,1.108,0.076,-157.099,-16.969,-35.809
0.413,0.791,0.225,-250.137,53.656,-95.901
0.209,0.228,0.212,-250.137,93.412,-140.153
-0.101,0.073,0.398,-250.137,94.634,-154.595
-0.355,0.134,0.579,-250.137,76.130,-151.183
-0.668,-0.036,1.032,-250.137,59.031,-129.489
-0.960,-0.081,1.346,-250.137,41.527,-96.466
-1.124,-0.077,1.661,-216.168,22.244,-60.122
-1.176,-0.106,1.845,-145.992,16.137,-24.672
-1.149,-0.127,1.902,-63.046,10.626,8.389
-1.087,-0.102,1.929,15.916,-0.183,38.695
-0.988,-0.071,1.849,82.328,-16.878,68.443
-0.826,-0.095,1.637,133.031,-48.069,92.573
-0.646,-0.055,1.338,162.664,-77.542,108.878
-0.507,0.008,1.114,171.229,-88.580,114.870
-0.415,0.086,0.971,167.458,-78.290,118.527
-0.312,0.213,0.833,152.977,-61.061,118.053
-0.216,0.303,0.744,129.374,-37.542,116.221
-0.157,0.326,0.700,103.969,-20.496,111.969
-0.031,0.292,0.645,82.069,-3.084,101.565
0.074,0.302,0.642,63.298,16.779,85.924
0.086,0.366,0.611,48.931,25.145,71.618
0.102,0.384,0.621,36.802,23.023,58.855
0.071,0.393,0.648,28.725,20.359,48.916
0.035,0.395,0.651,24.130,14.504,39.466
-0.009,0.387,0.661,22.275,11.260,34.145
-0.069,0.392,0.680,21.298,10.183,31.153
-0.131,0.423,0.705,19.672,11.008,31.000
-0.183,0.385,0.705,19.626,10.359,32.870
-0.197,0.373,0.710,21.458,15.344,36.328
-0.216,0.395,0.708,21.733,18.969,40.519
-0.235,0.385,0.751,18.137,17.099,43.000
-0.187,0.354,0.757,14.656,17.901,43.824
-0.187,0.350,0.769,13.473,17.427,41.779
-0.153,0.341,0.758,13.298,17.107,35.687
-0.157,0.393,0.765,14.237,18.427,28.115
-0.203,0.410,0.778,13.458,13.076,24.420
-0.245,0.403,0.796,11.580,8.053,25.244
-0.278,0.388,0.783,11.557,3.481,28.008
-0.301,0.399,0.789,12.954,3.328,33.061
-0.302,0.432,0.802,15.038,2.954,38.733
-0.285,0.435,0.805,16.618,4.809,43.740
-0.259,0.431,0.821,18.947,7.382,48.901
-0.249,0.432,0.817,22.733,9.031,53.695
-0.221,0.447,0.821,24.740,10.427,55.840
-0.211,0.461,0.821,24.962,13.748,56.718
-0.201,0.427,0.805,24.885,16.344,56.588
-0.206,0.459,0.771,27.221,15.855,54.847
-0.204,0.471,0.780,27.611,12.092,54.084
-0.193,0.491,0.774,25.191,9.809,54.282
-0.198,0.475,0.769,23.099,7.794,53.282
-0.188,0.480,0.752,22.420,7.305,52.191
-0.185,0.494,0.755,20.870,7.763,51.649
-0.209,0.509,0.767,17.641,7.947,52.069
-0.205,0.512,0.756,14.771,6.580,54.145
-0.186,0.491,0.759,13.809,7.931,54.069
-0.197,0.516,0.779,13.267,11.718,52.740
-0.193,0.521,0.786,12.504,14.450,53.641
-0.200,0.537,0.787,12.656,14.718,55.244
-0.196,0.527,0.802,13.939,13.038,56.221
-0.193,0.497,0.792,17.183,15.855,55.115
-0.195,0.498,0.790,19.534,17.237,54.718
-0.206,0.516,0.775,22.122,15.221,55.374
-0.199,0.515,0.770,22.962,13.313,56.496
-0.186,0.503,0.751,24.282,12.046,56.748
-0.184,0.501,0.730,24.557,13.656,57.977
-0.179,0.528,0.722,23.229,12.412,59.779
-0.182,0.516,0.730,21.504,12.779,61.580
-0.177,0.517,0.720,21.122,15.183,62.298
-0.180,0.533,0.708,21.191,16.786,63.878
-0.189,0.539,0.711,20.702,17.260,66.855
-0.202,0.536,0.693,21.000,13.893,70.122
-0.192,0.530,0.689,21.656,8.771,75.023
-0.172,0.544,0.698,21.099,4.244,81.511
-0.155,0.546,0.677,21.672,0.458,85.313
-0.107,0.555,0.670,22.221,-0.527,85.916
-0.056,0.583,0.668,22.313,1.672,83.885
-0.024,0.598,0.669,21.550,1.809,77.863
0.002,0.610,0.655,20.794,6.870,69.901
0.007,0.588,0.655,20.160,9.809,62.397
0.002,0.598,0.639,20.145,11.863,57.550
-0.013,0.607,0.639,18.931,13.176,54.359
-0.022,0.603,0.631,17.168,13.229,52.435
-0.040,0.606,0.615,14.618,14.046,51.985
-0.047,0.626,0.616,12.718,10.618,51.382
-0.013,0.634,0.629,9.748,9.176,49.206
0.029,0.637,0.635,8.000,10.076,46.290
0.042,0.648,0.630,8.267,12.771,40.847
0.022,0.652,0.657,8.412,16.481,35.008
-0.006,0.656,0.650,9.244,16.008,31.557
-0.026,0.651,0.654,10.519,14.168,30.015
-0.028,0.654,0.643,11.229,13.160,28.115
-0.017,0.652,0.637,10.458,14.000,25.153
-0.023,0.656,0.640,8.313,15.427,22.588
-0.041,0.670,0.642,5.168,15.366,20.687
-0.035,0.661,0.644,1.099,15.053,18.969
-0.041,0.654,0.641,-1.687,14.282,18.611
-0.036,0.659,0.663,-3.328,12.191,18.084
-0.024,0.654,0.666,-4.733,12.198,16.824
-0.029,0.652,0.674,-5.321,11.893,15.305
-0.043,0.630,0.693,-6.008,10.489,14.168
-0.039,0.626,0.698,-5.038,10.985,14.336
-0.039,0.634,0.692,-3.275,10.695,16.130
-0.026,0.631,0.692,-1.595,10.550,16.435
-0.006,0.625,0.695,0.153,11.916,16.275
-0.005,0.633,0.688,1.695,12.802,15.595
0.010,0.637,0.686,1.992,14.832,14.824

-0.226,0.708,0.733,-2.977,-4.786,-6.000
-0.058,0.706,0.615,10.023,11.130,3.130
-0.196,0.705,0.698,12.557,-0.573,1.466
-0.131,0.719,0.739,15.893,15.198,1.885
-0.153,0.674,0.674,20.176,19.634,2.099
-0.159,0.714,0.669,21.756,20.443,1.397
-0.151,0.712,0.664,19.496,30.023,-0.626
-0.170,0.715,0.647,16.008,33.870,-2.290
-0.158,0.713,0.623,13.565,37.305,-1.298
-0.154,0.717,0.616,11.847,38.221,-0.618
-0.181,0.728,0.526,9.321,52.954,-2.962
-0.231,0.721,0.511,1.641,46.137,-3.275
-0.221,0.714,0.552,-3.168,41.153,1.328
-0.190,0.693,0.585,-2.092,32.840,5.656
-0.182,0.706,0.600,3.725,26.282,6.237
-0.127,0.730,0.613,7.878,26.847,4.244
-0.148,0.729,0.595,11.504,29.634,0.771
-0.156,0.728,0.598,13.977,30.282,-1.122
-0.147,0.738,0.595,15.855,31.023,-0.733
-0.101,0.743,0.652,5.740,54.328,-1.160
-0.158,0.738,0.608,8.519,52.656,2.695
-0.163,0.729,0.620,11.107,54.176,6.504
-0.149,0.705,0.553,8.053,59.122,11.893
-0.155,0.662,0.579,18.313,63.878,20.802
-0.210,0.683,0.563,25.992,52.527,31.863
-0.204,0.711,0.543,27.809,45.679,43.038
-0.193,0.723,0.530,26.084,39.389,52.771
-0.174,0.746,0.541,21.924,33.023,59.565
-0.171,0.794,0.519,18.290,22.725,63.679
-0.103,0.839,0.457,18.260,23.305,67.260
-0.073,0.874,0.495,18.634,26.313,68.908
-0.035,0.872,0.492,20.191,30.534,68.420
-0.090,0.880,0.521,22.405,30.344,64.534
-0.095,0.871,0.500,25.763,31.275,57.718
-0.136,0.845,0.496,28.229,31.412,47.603
-0.173,0.841,0.517,29.962,29.183,33.534
-0.173,0.843,0.519,30.832,32.695,16.809
-0.149,0.840,0.537,30.779,34.977,1.099
-0.127,0.829,0.531,30.534,36.450,-10.458
-0.129,0.829,0.520,29.977,38.046,-16.725
-0.141,0.829,0.525,28.847,37.695,-19.008
-0.130,0.812,0.509,26.702,35.656,-18.863
-0.157,0.826,0.501,24.046,32.687,-17.702
-0.173,0.823,0.490,20.588,26.076,-16.863
-0.217,0.812,0.563,16.321,16.687,-17.420
-0.185,0.800,0.476,12.389,8.366,-16.321
-0.201,0.798,0.494,8.290,1.099,-16.038
-0.205,0.802,0.497,3.481,-5.076,-14.672
-0.210,0.797,0.520,-0.611,-6.954,-11.908
-0.197,0.802,0.521,-3.878,-2.550,-9.038
-0.191,0.789,0.528,-4.916,2.191,-6.611
-0.192,0.781,0.535,-3.824,8.435,-4.527
-0.213,0.777,0.531,-0.695,12.977,-2.756
-0.221,0.772,0.527,3.122,15.412,-1.435
-0.225,0.772,0.527,7.336,17.557,-0.885
-0.228,0.781,0.522,11.450,18.473,-1.473
-0.215,0.783,0.514,14.382,21.634,-3.244
-0.217,0.800,0.506,16.733,25.855,-5.824
-0.219,0.797,0.488,17.832,28.061,-7.534
-0.239,0.791,0.469,18.603,28.779,-7.748
-0.248,0.787,0.479,19.282,29.008,-7.107
-0.254,0.774,0.463,19.756,29.649,-5.504
-0.246,0.771,0.457,19.305,34.702,-3.702
-0.233,0.771,0.465,17.260,41.527,-1.542
-0.249,0.770,0.447,15.145,48.137,0.634
-0.262,0.782,0.452,13.977,53.046,2.374
-0.307,0.771,0.439,13.198,53.328,3.008
-0.274,0.776,0.426,13.397,46.481,3.160
-0.295,0.795,0.408,13.595,38.573,3.122
-0.282,0.793,0.402,12.557,35.122,3.221
-0.265,0.797,0.399,10.626,34.221,2.511
-0.255,0.802,0.398,7.840,33.069,1.786
-0.267,0.821,0.374,4.916,28.069,2.534
-0.270,0.813,0.373,1.557,24.779,1.641
-0.242,0.818,0.354,-0.939,22.649,2.359
-0.253,0.817,0.361,-3.061,16.840,3.466
-0.251,0.811,0.361,-6.580,13.076,3.878
-0.270,0.805,0.381,-10.763,7.443,4.374
-0.267,0.818,0.369,-13.885,-0.038,6.313
-0.270,0.798,0.385,-16.443,-7.473,9.038
-0.256,0.803,0.361,-17.725,-13.458,11.382
-0.269,0.788,0.388,-18.794,-15.519,9.687
-0.234,0.803,0.382,-18.588,-15.328,6.664
-0.221,0.825,0.392,-17.473,-15.588,5.015
-0.202,0.845,0.399,-17.389,-15.351,4.061
-0.198,0.843,0.410,-18.985,-10.679,3.611
-0.206,0.850,0.432,-20.878,-6.740,4.794
-0.237,0.831,0.446,-22.130,-5.878,5.489
-0.241,0.816,0.515,-22.176,-3.229,7.634
-0.220,0.790,0.412,-22.038,1.015,10.313
-0.162,0.806,0.487,-30.412,14.412,17.908
-0.246,0.842,0.497,-36.809,14.740,23.885
-0.242,0.836,0.507,-39.809,9.534,21.275
-0.153,0.854,0.429,-42.229,2.679,19.397
-0.196,0.859,0.485,-45.214,-0.878,14.817
-0.197,0.827,0.471,-43.847,-6.183,7.756
-0.232,0.810,0.396,-31.557,-34.641,-1.084
-0.170,0.763,0.515,-26.069,-25.328,-3.137
-0.212,0.758,0.520,-18.275,-21.969,-0.756
-0.208,0.756,0.537,-12.412,-17.450,1.573
-0.220,0.734,0.581,-7.412,-10.405,2.832
-0.213,0.747,0.556,-1.748,-3.817,5.145
-0.200,0.767,0.542,4.855,-1.740,6.603
-0.187,0.768,0.536,10.542,2.153,8.099
-0.174,0.795,0.524,14.649,6.443,9.626
-0.181,0.816,0.501,17.145,10.450,10.244
-0.166,0.824,0.492,17.519,12.992,9.992
-0.190,0.813,0.490,16.458,15.450,9.794
-0.207,0.801,0.475,14.366,14.954,9.710
-0.223,0.806,0.458,12.962,11.092,9.336
-0.212,0.815,0.463,11.817,8.443,8.779
-0.198,0.812,0.466,11.061,7.420,7.939
-0.201,0.816,0.474,9.977,7.427,7.748
-0.211,0.811,0.469,9.931,4.176,7.557
-0.194,0.828,0.478,10.344,3.084,8.382
-0.196,0.810,0.481,11.351,3.756,8.817
-0.200,0.810,0.477,14.252,0.634,8.550
-0.184,0.807,0.465,17.824,0.351,7.122
-0.186,0.826,0.518,20.191,1.855,7.130

0.113,0.898,-0.787,-173.260,-2.351,-48.496
0.064,0.838,-0.830,-215.794,40.855,-50.420
0.011,0.763,-0.752,-250.137,75.901,-49.061
-0.110,0.600,-0.632,-250.137,92.962,-50.122
-0.180,0.448,-0.472,-250.137,92.756,-51.832
-0.199,0.329,-0.279,-250.137,76.130,-49.282
-0.173,0.232,-0.037,-250.137,58.061,-45.924
-0.208,0.162,0.230,-250.137,45.817,-49.092
-0.229,0.130,0.460,-250.137,33.115,-54.802
-0.232,0.123,0.591,-250.137,19.344,-56.969
-0.219,0.129,0.757,-250.137,25.130,-57.817
-0.220,0.163,1.004,-250.137,45.107,-54.634
-0.248,0.174,1.179,-250.137,73.321,-50.779
-0.275,0.179,1.332,-250.137,93.969,-47.214
-0.423,0.087,1.615,-250.137,101.260,-42.832
-0.458,0.094,1.740,-250.137,92.550,-35.672
-0.506,0.109,1.874,-212.985,81.473,-28.954
-0.562,0.072,1.966,-171.366,63.092,-20.916
-0.576,0.075,2.000,-126.763,36.168,-10.832
-0.545,0.085,1.974,-79.275,9.061,0.466
-0.563,0.095,2.000,-33.832,-14.664,11.183
-0.495,0.124,1.916,8.771,-26.420,20.168
-0.459,0.144,1.850,40.115,-32.985,27.137
-0.426,0.154,1.711,69.008,-37.443,34.015
-0.369,0.185,1.572,95.557,-39.511,41.710
-0.328,0.216,1.454,117.420,-41.893,46.893
-0.300,0.220,1.345,133.748,-44.893,50.382
-0.266,0.247,1.225,147.924,-45.328,51.924
-0.253,0.263,1.115,160.321,-45.427,53.275
-0.218,0.289,1.016,169.359,-45.229,54.229
-0.197,0.317,0.903,176.473,-43.809,56.244
-0.194,0.325,0.827,180.359,-38.420,57.687
-0.178,0.356,0.770,180.992,-35.015,57.779
-0.169,0.375,0.706,178.427,-32.847,57.298
-0.144,0.418,0.638,175.855,-26.756,56.450
-0.130,0.458,0.586,173.107,-20.687,56.473
-0.115,0.498,0.540,169.405,-14.053,56.542
-0.117,0.522,0.521,163.542,-10.069,56.137
-0.119,0.542,0.514,153.901,-6.427,53.588
-0.112,0.592,0.511,142.511,-6.565,49.687
-0.084,0.621,0.482,131.977,-7.405,47.130
-0.064,0.646,0.461,124.267,-6.901,46.160
-0.037,0.679,0.451,118.649,-3.954,44.939
-0.032,0.686,0.456,113.275,-3.664,42.779
-0.037,0.687,0.462,107.710,-3.863,39.336
-0.028,0.702,0.458,103.000,-2.053,35.282
-0.043,0.714,0.468,97.702,-1.374,31.237
-0.033,0.735,0.460,93.962,-0.916,30.099
-0.021,0.754,0.467,92.252,2.092,31.122
-0.028,0.770,0.478,92.137,2.588,32.634
-0.014,0.766,0.474,92.779,-0.931,34.557
-0.008,0.772,0.474,93.885,-4.901,35.031
0.011,0.788,0.447,95.221,-7.809,34.916
0.033,0.802,0.448,95.748,-8.458,34.183
0.035,0.790,0.439,96.351,-10.626,33.321
0.039,0.803,0.426,96.672,-14.473,31.840
0.044,0.805,0.404,97.557,-16.573,29.473
0.059,0.814,0.386,98.641,-18.092,27.053
0.078,0.827,0.355,99.321,-19.847,24.771
0.080,0.854,0.345,99.763,-18.763,22.519
0.107,0.862,0.291,99.710,-15.420,20.489
0.102,0.872,0.280,98.481,-13.061,18.565
0.101,0.867,0.264,94.580,-9.656,16.863
0.077,0.857,0.249,89.015,-8.290,14.779
0.069,0.851,0.247,83.191,-7.710,12.137
0.070,0.862,0.252,76.275,-6.076,9.321
0.062,0.876,0.244,69.672,-5.794,6.649
0.049,0.901,0.242,65.863,-9.168,5.229
0.062,0.918,0.209,65.237,-11.420,5.168
0.073,0.926,0.189,65.939,-10.382,5.473
0.055,0.937,0.180,66.405,-8.580,5.939
0.050,0.948,0.173,66.527,-8.389,6.687
0.061,0.949,0.168,65.679,-7.931,7.771
0.059,0.951,0.158,63.725,-5.458,8.725
0.057,0.962,0.148,61.267,-5.481,9.405
0.059,0.952,0.148,58.939,-7.435,10.015
0.050,0.958,0.141,56.534,-11.748,10.527
0.050,0.949,0.121,53.962,-13.336,10.496
0.053,0.951,0.122,51.809,-13.969,11.267
0.062,0.952,0.088,50.870,-12.809,12.061
0.070,0.946,0.096,50.649,-9.214,12.443
0.064,0.953,0.088,50.282,-6.641,13.000
0.073,0.961,0.090,50.115,-6.137,13.618
0.074,0.954,0.097,50.649,-3.817,14.084
0.074,0.965,0.083,52.359,-1.603,14.183
0.081,0.961,0.073,55.321,-1.550,14.473
0.080,0.948,0.076,57.794,-1.527,15.168
0.075,0.957,0.084,59.252,-2.847,15.260
0.081,0.964,0.060,60.000,-5.489,15.847
0.080,0.960,0.056,59.595,-7.198,16.565
0.090,0.972,0.038,57.351,-8.847,17.008
0.110,0.979,0.007,54.168,-10.908,17.214
0.115,0.988,-0.019,51.901,-13.885,17.511
0.127,0.977,-0.025,48.672,-15.176,17.855
0.138,0.983,-0.039,43.931,-13.374,17.305
0.142,0.986,-0.047,37.527,-11.420,15.634
0.149,0.990,-0.067,30.947,-8.305,13.260
0.150,0.987,-0.058,25.046,-5.130,10.802
0.147,0.987,-0.062,18.603,-2.664,8.069
0.151,0.991,-0.070,12.328,1.023,5.664
0.135,0.993,-0.054,5.725,2.695,4.000
0.135,1.000,-0.034,-0.252,1.603,3.168
0.141,1.000,-0.035,-4.634,0.992,2.237
0.142,1.001,-0.030,-7.580,2.321,1.420
0.146,1.010,-0.000,-8.855,4.328,0.710
0.131,0.990,0.013,-8.901,5.198,0.061
0.124,0.987,0.035,-8.084,3.847,-1.061
0.120,0.986,0.037,-4.580,3.504,-2.038
0.120,0.981,0.040,-0.321,7.221,-2.992
0.105,0.989,0.050,4.313,9.473,-3.229
0.096,0.985,0.054,7.824,9.107,-3.130
0.098,0.990,0.062,10.595,8.924,-2.847
0.095,0.999,0.043,13.710,9.985,-2.031
0.094,1.001,0.052,16.130,9.298,-1.702
0.085,0.999,0.054,17.794,6.420,-1.450
0.092,1.006,0.028,19.847,4.122,-0.977
0.095,1.013,0.014,21.763,3.328,0.718
0.094,1.013,0.021,22.847,2.115,2.221
0.100,1.009,-0.019,22.649,0.618,3.405

0.196,0.928,-0.653,-150.840,-9.092,-43.878
0.213,0.879,-0.739,-191.366,15.504,-44.435
0.203,0.785,-0.801,-235.779,47.656,-45.221
0.136,0.650,-0.761,-250.137,83.397,-50.298
0.076,0.485,-0.672,-250.137,110.863,-61.252
-0.015,0.359,-0.503,-250.137,119.557,-76.183
-0.069,0.268,-0.300,-250.137,114.458,-87.901
-0.132,0.190,-0.083,-250.137,99.099,-93.664
-0.153,0.143,0.075,-250.137,88.313,-93.389
-0.166,0.122,0.267,-250.137,83.595,-90.046
-0.195,0.093,0.528,-250.137,79.267,-82.412
-0.200,0.085,0.772,-250.137,79.626,-76.679
-0.198,0.079,0.981,-250.137,81.153,-73.336
-0.228,0.073,1.220,-250.137,87.214,-71.420
-0.257,0.010,1.413,-250.137,93.405,-70.939
-0.326,-0.040,1.715,-250.137,96.740,-70.702
-0.409,-0.034,1.987,-250.137,91.878,-68.824
-0.465,-0.028,2.000,-207.336,78.718,-63.137
-0.546,-0.006,2.000,-140.481,60.702,-54.450
-0.604,0.051,2.000,-77.252,33.550,-40.763
-0.610,0.081,2.000,-17.672,-1.351,-22.191
-0.558,0.143,2.000,36.664,-27.359,-0.672
-0.501,0.153,1.964,73.702,-40.527,16.344
-0.432,0.158,1.791,99.305,-48.870,29.099
-0.360,0.175,1.619,118.153,-53.008,38.084
-0.286,0.205,1.441,132.511,-52.878,43.603
-0.232,0.224,1.295,144.908,-49.611,46.710
-0.184,0.242,1.163,154.870,-46.992,48.115
-0.165,0.264,1.070,162.611,-46.885,46.901
-0.135,0.291,0.967,168.107,-46.802,45.053
-0.114,0.309,0.875,172.473,-45.069,42.023
-0.121,0.321,0.817,174.924,-40.366,38.466
-0.098,0.364,0.736,175.389,-38.336,35.099
-0.087,0.410,0.676,176.336,-38.511,33.389
-0.113,0.424,0.646,178.023,-37.229,32.618
-0.118,0.442,0.581,176.611,-33.885,31.344
-0.121,0.502,0.567,172.344,-30.603,29.893
-0.095,0.548,0.530,166.496,-26.565,30.519
-0.086,0.596,0.512,159.908,-20.084,32.282
-0.076,0.634,0.501,154.275,-14.450,33.542
-0.076,0.654,0.505,148.084,-10.176,34.550
-0.071,0.676,0.492,142.122,-8.305,34.107
-0.053,0.705,0.496,136.214,-6.679,34.115
-0.034,0.728,0.487,130.908,-3.176,35.092
-0.030,0.739,0.497,127.603,-2.099,36.061
-0.028,0.738,0.488,126.603,-4.046,37.550
-0.022,0.730,0.478,127.733,-6.260,38.954
-0.006,0.731,0.465,130.084,-6.908,40.252
0.006,0.743,0.448,131.855,-6.824,41.084
0.024,0.758,0.422,132.397,-6.901,40.992
0.043,0.764,0.407,131.687,-5.473,40.832
0.042,0.778,0.382,129.573,-5.542,39.412
0.051,0.791,0.350,126.237,-5.939,37.298
0.069,0.814,0.320,123.282,-7.145,36.351
0.083,0.837,0.282,121.794,-8.031,36.366
0.102,0.853,0.276,119.725,-7.160,36.473
0.112,0.861,0.253,117.298,-6.061,35.794
0.113,0.855,0.230,113.817,-5.099,34.015
0.132,0.854,0.209,109.023,-4.931,31.626
0.148,0.873,0.198,104.008,-5.260,29.122
0.144,0.882,0.177,100.130,-6.153,25.924
0.128,0.866,0.155,96.450,-4.656,22.145
0.117,0.870,0.176,91.878,-3.908,17.298
0.112,0.884,0.134,86.763,-4.145,13.252
0.129,0.910,0.115,82.183,-1.389,10.511
0.131,0.925,0.103,78.618,4.298,10.214
0.120,0.937,0.114,75.427,6.351,10.733
0.115,0.938,0.123,72.748,6.443,11.176
0.115,0.942,0.104,70.366,4.634,11.382
0.115,0.942,0.095,68.374,1.344,10.695
0.116,0.944,0.086,66.000,-2.008,9.420
0.119,0.949,0.071,63.305,-4.573,8.198
0.113,0.958,0.060,58.855,-6.389,7.160
0.110,0.955,0.052,53.580,-5.870,6.107
0.105,0.958,0.050,48.901,-4.695,4.542
0.109,0.965,0.027,44.954,-4.924,4.481
0.112,0.971,0.025,41.229,-3.260,5.023
0.112,0.970,0.032,37.450,-2.092,5.176
0.106,0.975,0.043,33.641,-2.374,5.351
0.097,0.980,0.020,31.198,-2.565,5.252
0.112,0.982,0.028,29.855,-0.656,6.115
0.106,0.993,0.047,28.779,-0.489,7.053
0.097,0.993,0.055,27.153,-2.397,8.595
0.109,0.995,0.047,26.366,-3.550,9.557
0.105,0.990,0.052,25.954,-3.954,11.221
0.106,0.988,0.054,26.038,-4.878,12.519
0.104,0.976,0.062,25.695,-5.565,12.893
0.111,0.976,0.055,25.038,-6.076,12.405
0.119,0.983,0.050,25.076,-4.969,11.305
0.123,0.987,0.038,25.908,-2.374,10.962
0.119,0.979,0.044,26.557,-1.298,11.153
0.125,0.984,0.037,26.954,-2.214,11.435
0.141,0.987,0.027,27.252,-4.275,11.756
0.140,0.981,0.031,26.580,-4.000,11.168
0.142,0.983,0.022,25.305,-3.885,9.901
0.150,0.991,0.009,24.298,-5.046,9.359
0.148,0.979,-0.006,24.191,-4.351,9.282
0.152,0.988,-0.010,24.183,-3.031,9.275
0.157,0.983,-0.016,23.427,-4.092,9.443
0.156,0.987,-0.013,21.519,-6.069,9.450
0.167,0.983,-0.030,19.656,-8.725,8.809
0.178,0.974,-0.039,17.824,-9.405,7.672
0.179,0.971,-0.050,15.664,-7.130,5.206
0.187,0.978,-0.066,14.023,-3.466,2.779
0.174,0.969,-0.063,12.344,0.153,0.267
0.173,0.972,-0.070,10.481,3.672,-2.008
0.156,0.975,-0.064,9.885,6.664,-3.885
0.164,0.979,-0.076,9.893,8.092,-4.382
0.150,0.985,-0.045,10.145,6.969,-3.450
0.145,0.979,-0.047,10.305,4.748,-1.450
0.131,0.979,-0.025,9.916,2.260,0.321
0.115,0.991,-0.007,9.427,-0.023,1.725
0.148,0.987,-0.032,9.641,-1.756,3.107
0.138,0.994,-0.016,9.443,-2.733,4.641
0.157,1.002,-0.037,7.985,-2.954,5.641
0.146,0.996,-0.030,6.718,-1.802,6.115
0.154,1.006,-0.029,5.962,-2.443,6.115
0.163,0.999,-0.035,5.527,-2.977,6.122
0.161,1.001,-0.040,5.092,-1.359,5.924

0.252,0.916,-0.641,-107.336,-40.260,-40.573
0.283,0.929,-0.739,-146.313,-26.427,-45.809
0.278,0.867,-0.804,-189.901,-8.595,-49.740
0.307,0.788,-0.880,-247.076,25.924,-54.130
0.237,0.650,-0.764,-250.137,64.786,-60.626
0.170,0.470,-0.670,-250.137,99.420,-74.153
0.068,0.298,-0.477,-250.137,130.649,-94.443
-0.038,0.175,-0.221,-250.137,151.687,-111.267
-0.114,0.115,0.008,-250.137,157.176,-120.015
-0.265,0.071,0.359,-250.137,149.107,-121.137
-0.314,0.038,0.622,-250.137,141.244,-114.962
-0.350,0.049,0.899,-250.137,134.847,-104.931
-0.412,0.056,1.179,-250.137,117.550,-93.626
-0.421,0.057,1.437,-250.137,93.130,-81.557
-0.457,0.047,1.712,-250.137,65.832,-70.137
-0.499,0.062,1.933,-250.137,43.359,-61.519
-0.504,0.070,2.000,-232.985,28.458,-53.214
-0.557,0.099,2.000,-154.359,12.695,-40.802
-0.533,0.130,2.000,-78.328,-0.832,-24.122
-0.537,0.169,2.000,-13.153,-16.481,-5.664
-0.495,0.192,2.000,33.504,-23.412,10.076
-0.457,0.210,1.919,66.702,-27.038,23.450
-0.405,0.233,1.748,89.664,-32.122,34.084
-0.356,0.235,1.605,105.542,-36.519,41.160
-0.312,0.251,1.490,117.397,-41.183,45.718
-0.253,0.264,1.367,128.794,-45.290,48.359
-0.208,0.277,1.240,141.779,-48.046,49.756
-0.169,0.294,1.141,154.244,-48.237,49.458
-0.146,0.304,1.048,168.191,-47.618,48.122
-0.125,0.329,0.954,180.626,-45.847,46.718
-0.104,0.360,0.849,192.069,-44.145,45.382
-0.096,0.382,0.764,201.679,-39.221,44.008
-0.104,0.405,0.705,207.817,-31.641,42.573
-0.100,0.456,0.664,210.305,-26.626,41.748
-0.104,0.495,0.605,210.046,-26.511,41.687
-0.102,0.533,0.569,208.076,-29.985,42.191
-0.087,0.571,0.532,205.008,-32.527,42.420
-0.084,0.623,0.490,200.092,-34.328,41.916
-0.058,0.655,0.429,193.443,-32.710,40.977
-0.030,0.705,0.425,185.656,-26.580,40.412
-0.023,0.728,0.401,175.160,-20.313,41.099
-0.009,0.764,0.372,166.496,-20.840,43.000
0.004,0.768,0.349,160.328,-21.992,45.847
0.023,0.760,0.310,155.962,-21.580,47.809
0.037,0.770,0.292,152.664,-20.267,49.237
0.074,0.787,0.240,149.115,-17.954,50.252
0.092,0.791,0.224,144.115,-13.176,49.748
0.099,0.806,0.240,137.969,-11.397,48.427
0.115,0.818,0.215,132.137,-14.885,47.061
0.143,0.821,0.195,127.725,-19.397,45.046
0.158,0.829,0.155,123.534,-21.863,41.160
0.154,0.840,0.140,118.244,-22.237,36.542
0.179,0.863,0.123,112.252,-21.832,32.023
0.175,0.871,0.111,105.679,-19.611,27.557
0.193,0.873,0.083,99.008,-15.244,23.382
0.185,0.881,0.087,91.252,-9.176,20.015
0.183,0.899,0.079,83.832,-7.282,16.229
0.180,0.906,0.062,77.084,-7.718,12.832
0.182,0.899,0.062,72.656,-7.214,10.412
0.175,0.914,0.037,68.420,-6.145,7.756
0.179,0.922,0.036,64.504,-4.748,5.924
0.179,0.941,0.025,59.809,-0.130,3.969
0.168,0.944,0.025,55.122,1.611,1.634
0.158,0.945,0.023,51.130,-0.015,0.557
0.142,0.938,0.023,47.962,-1.015,-0.336
0.146,0.948,0.019,44.634,-1.985,-0.992
0.152,0.960,0.000,41.802,-2.771,-0.947
0.142,0.956,0.010,37.786,-1.855,-0.641
0.140,0.954,0.007,32.473,-2.534,-0.756
0.133,0.963,0.012,27.802,-5.466,-0.977
0.128,0.961,0.005,23.183,-6.840,-2.023
0.128,0.966,-0.001,18.855,-6.573,-3.031
0.134,0.981,-0.002,14.405,-5.267,-2.702
0.124,0.996,-0.003,11.511,-3.397,-1.702
0.131,0.975,0.006,9.389,-1.794,-0.519
0.121,0.985,0.018,6.809,-0.115,0.344
0.122,0.999,0.018,4.382,-0.382,0.740
0.116,0.988,0.038,3.107,0.305,1.237
0.126,0.991,0.044,3.321,1.481,1.832
0.123,0.983,0.045,4.550,1.565,2.756
0.124,0.980,0.062,6.214,-0.389,3.763
0.126,0.983,0.073,7.725,-2.214,4.405
0.132,0.977,0.073,9.046,-2.145,5.046
0.129,0.979,0.071,10.168,-2.382,4.321
0.141,0.981,0.062,10.870,-2.290,3.908
0.140,0.975,0.059,11.435,-1.641,2.840
0.146,0.977,0.060,11.160,0.847,1.809
0.137,0.981,0.061,9.763,2.130,0.420
0.135,0.982,0.057,8.931,0.618,-0.328
0.132,0.988,0.058,8.679,-0.962,-0.733
0.125,0.987,0.059,9.092,-1.748,-0.137
0.125,0.989,0.055,9.809,-2.626,1.366
0.129,0.984,0.052,10.267,-3.656,3.069
0.141,0.986,0.048,10.473,-3.000,3.954
0.143,0.990,0.037,10.603,-2.351,4.191
0.158,0.990,0.038,10.160,-0.458,4.634
0.164,0.985,0.033,9.496,1.550,4.260
0.167,0.975,0.038,9.168,3.611,3.542
0.173,0.969,0.027,8.702,3.786,2.107
0.164,0.968,0.028,8.519,2.763,0.198
0.173,0.971,0.019,7.924,2.099,-1.664
0.184,0.978,0.020,7.450,2.931,-3.427
0.182,0.977,0.009,6.550,5.160,-4.573
0.165,0.973,0.016,4.733,7.878,-5.649
0.149,0.981,0.028,1.519,9.756,-7.214
0.140,0.979,0.043,-1.115,7.321,-7.725
0.136,0.985,0.045,-2.847,4.389,-7.527
0.134,0.990,0.030,-3.420,3.046,-6.550
0.133,0.989,0.039,-3.069,2.756,-5.076
0.138,0.989,0.034,-2.779,3.137,-3.786
0.132,0.990,0.038,-2.534,4.733,-3.275
0.130,0.992,0.052,-1.695,4.580,-3.099
0.116,0.982,0.066,-1.107,3.176,-2.748
0.118,0.990,0.056,-0.855,2.389,-2.504
0.126,0.993,0.063,-0.748,2.351,-2.824
0.115,0.988,0.062,-0.611,2.710,-2.733
0.116,0.997,0.042,0.137,3.443,-2.366
0.119,0.999,0.046,1.237,3.718,-1.893
0.109,0.997,0.054,2.702,3.008,-1.382

0.295,0.944,-0.552,-99.328,-59.595,-41.176
0.299,0.918,-0.624,-134.229,-32.931,-48.527
0.282,0.868,-0.663,-176.176,3.534,-57.588
0.259,0.822,-0.691,-223.573,42.046,-67.008
0.204,0.722,-0.653,-250.137,69.710,-75.588
0.140,0.629,-0.571,-250.137,89.053,-83.992
0.070,0.533,-0.452,-250.137,101.153,-92.664
0.008,0.462,-0.262,-250.137,106.115,-95.427
-0.083,0.379,-0.083,-250.137,88.901,-96.183
-0.094,0.332,0.019,-250.137,68.420,-93.504
-0.083,0.262,0.122,-250.137,65.885,-88.756
-0.161,0.208,0.327,-250.137,78.595,-88.130
-0.205,0.184,0.555,-250.137,85.214,-86.740
-0.244,0.210,0.800,-250.137,84.664,-83.389
-0.260,0.270,1.000,-250.137,88.130,-78.779
-0.274,0.256,1.155,-250.137,93.198,-72.832
-0.378,0.165,1.396,-250.137,87.099,-62.573
-0.391,0.134,1.577,-250.137,77.802,-49.099
-0.427,0.107,1.766,-250.137,67.107,-36.962
-0.458,0.130,1.931,-224.000,63.092,-27.344
-0.520,0.050,2.000,-163.366,53.466,-15.412
-0.566,0.047,2.000,-100.504,26.420,0.733
-0.517,0.076,2.000,-37.260,-0.527,17.870
-0.462,0.095,2.000,11.481,-16.046,29.366
-0.411,0.094,2.000,52.954,-26.527,37.977
-0.345,0.105,1.852,90.313,-35.611,44.412
-0.292,0.120,1.682,118.725,-42.336,47.855
-0.227,0.153,1.516,140.656,-45.481,49.160
-0.198,0.178,1.360,158.252,-46.779,48.710
-0.166,0.201,1.212,172.344,-49.672,47.130
-0.145,0.234,1.069,184.038,-51.542,44.863
-0.124,0.266,0.943,193.550,-51.611,42.427
-0.117,0.295,0.856,199.275,-50.107,39.405
-0.112,0.324,0.758,201.504,-45.252,36.130
-0.104,0.369,0.678,200.901,-38.481,32.855
-0.109,0.404,0.641,199.275,-32.412,31.298
-0.107,0.447,0.602,197.542,-26.504,30.840
-0.084,0.497,0.559,194.962,-20.603,32.076
-0.085,0.553,0.538,190.565,-14.481,33.885
-0.087,0.595,0.504,186.450,-10.588,35.023
-0.092,0.622,0.478,181.267,-8.122,35.412
-0.088,0.662,0.465,174.656,-9.351,35.840
-0.060,0.686,0.422,165.969,-10.328,36.084
-0.051,0.713,0.417,157.244,-8.779,36.008
-0.045,0.727,0.394,147.916,-6.985,36.382
-0.020,0.734,0.366,139.725,-3.580,37.084
-0.019,0.748,0.369,132.679,-1.313,38.000
0.004,0.780,0.356,127.985,-0.031,39.656
0.012,0.774,0.366,124.328,1.832,41.160
0.019,0.770,0.366,121.847,1.649,42.137
0.038,0.779,0.344,120.359,-1.015,42.573
0.062,0.799,0.330,120.084,-3.901,42.290
0.078,0.803,0.304,120.885,-7.366,40.977
0.098,0.816,0.293,119.763,-8.756,39.099
0.101,0.833,0.283,115.664,-9.832,36.122
0.095,0.844,0.274,110.687,-11.565,32.450
0.114,0.848,0.246,106.931,-13.588,30.076
0.107,0.861,0.223,103.702,-14.275,27.641
0.115,0.864,0.194,102.168,-13.832,25.053
0.114,0.877,0.177,100.137,-10.443,22.382
0.123,0.884,0.146,97.481,-6.939,19.733
0.131,0.895,0.128,92.885,-2.466,17.153
0.119,0.912,0.133,87.794,-0.626,15.107
0.120,0.905,0.116,82.260,-0.221,12.389
0.115,0.915,0.105,76.168,-2.160,10.000
0.113,0.927,0.097,69.206,-3.321,7.771
0.107,0.937,0.100,62.412,-5.061,5.053
0.105,0.937,0.090,57.504,-6.794,2.947
0.100,0.946,0.086,52.366,-5.405,0.916
0.106,0.950,0.069,47.626,-3.137,-0.687
0.095,0.961,0.080,44.534,-0.916,-0.779
0.092,0.963,0.060,42.389,0.313,-0.496
0.088,0.967,0.065,40.015,1.237,-0.328
0.089,0.973,0.067,35.634,1.817,-0.481
0.080,0.970,0.071,30.565,1.992,-0.672
0.080,0.972,0.062,25.076,2.298,-0.901
0.083,0.973,0.067,21.382,3.382,-0.611
0.082,0.976,0.069,17.420,2.634,-0.153
0.075,0.975,0.064,15.160,0.565,0.626
0.074,0.975,0.064,13.687,0.634,1.305
0.063,0.979,0.089,12.534,1.160,1.679
0.064,0.981,0.099,11.656,-0.084,2.626
0.068,0.981,0.098,11.412,-2.221,3.840
0.077,0.979,0.087,11.443,-2.183,4.710
0.083,0.986,0.083,11.176,-1.191,5.107
0.095,0.986,0.077,11.252,0.061,5.473
0.101,0.988,0.083,10.718,2.901,5.542
0.104,0.981,0.092,9.260,5.107,5.649
0.107,0.981,0.092,6.916,2.969,5.023
0.109,0.966,0.094,5.176,1.107,4.008
0.100,0.966,0.103,3.153,0.489,2.214
0.109,0.974,0.096,1.542,0.557,0.321
0.109,0.975,0.104,1.168,0.557,-0.573
0.114,0.979,0.095,1.298,1.405,-0.756
0.118,0.974,0.095,2.061,3.710,-1.076
0.111,0.973,0.097,2.916,6.557,-1.389
0.113,0.979,0.104,3.107,6.901,-1.504
0.106,0.983,0.109,3.107,6.557,-1.595
0.097,0.977,0.118,2.611,5.115,-1.588
0.098,0.976,0.116,2.229,2.855,-1.397
0.095,0.985,0.118,2.061,0.733,-1.351
0.100,0.979,0.092,3.191,0.130,-1.573
0.103,0.978,0.101,3.947,0.664,-1.137
0.099,0.985,0.102,4.481,2.076,-1.046
0.103,0.983,0.106,5.374,3.466,-0.985
0.098,0.985,0.093,6.519,3.466,-0.634
0.104,0.983,0.092,6.985,3.969,-0.237
0.099,0.981,0.095,6.198,3.626,-0.466
0.096,0.978,0.086,5.374,2.725,-0.664
0.098,0.983,0.090,4.443,1.023,-0.954
0.106,0.978,0.079,3.321,0.061,-1.038
0.103,0.970,0.072,1.412,-0.489,-1.145
0.103,0.978,0.062,-0.679,-1.405,-2.008
0.104,0.968,0.062,-3.366,-0.824,-2.969
0.088,0.967,0.060,-7.130,1.618,-4.863
0.089,0.979,0.059,-11.221,2.817,-6.237
0.090,0.988,0.062,-14.641,3.771,-6.779
0.095,1.006,0.072,-16.756,8.336,-7.252
0.094,0.993,0.073,-15.992,15.191,-6.847

0.191,0.938,-0.640,-89.275,-72.282,-36.695
0.196,0.963,-0.742,-137.160,-43.580,-36.084
0.153,0.848,-0.814,-189.374,0.626,-35.458
0.105,0.735,-0.813,-250.137,59.397,-37.198
0.063,0.606,-0.731,-250.137,114.595,-43.389
0.012,0.498,-0.560,-250.137,143.000,-52.198
-0.090,0.359,-0.245,-250.137,138.046,-64.458
-0.145,0.230,-0.033,-250.137,112.015,-71.504
-0.124,0.164,0.119,-250.137,114.244,-74.221
-0.149,0.068,0.389,-250.137,138.504,-75.328
-0.167,0.016,0.599,-250.137,154.061,-74.893
-0.244,0.003,0.932,-250.137,151.710,-72.832
-0.269,-0.058,1.162,-250.137,140.153,-69.588
-0.355,-0.056,1.506,-250.137,130.763,-65.718
-0.391,-0.031,1.769,-250.137,120.924,-62.122
-0.418,-0.042,1.974,-250.137,105.740,-58.260
-0.480,-0.086,2.000,-213.565,87.282,-53.260
-0.534,-0.035,2.000,-149.275,65.504,-46.130
-0.592,0.007,2.000,-87.069,34.076,-36.160
-0.609,0.010,2.000,-28.450,-0.313,-22.649
-0.577,0.061,2.000,21.260,-26.328,-7.550
-0.533,0.084,1.998,59.740,-40.664,6.420
-0.453,0.108,1.815,86.153,-47.092,18.702
-0.383,0.129,1.630,105.389,-46.954,28.366
-0.325,0.155,1.479,118.214,-44.031,33.740
-0.283,0.171,1.352,129.885,-43.496,36.809
-0.249,0.192,1.262,140.305,-43.336,38.313
-0.221,0.216,1.155,150.588,-46.160,38.443
-0.202,0.238,1.064,161.389,-49.809,37.321
-0.178,0.266,0.973,172.115,-51.282,35.649
-0.168,0.293,0.860,183.267,-50.076,34.359
-0.139,0.322,0.789,191.038,-48.191,33.519
-0.132,0.351,0.732,195.519,-45.031,33.382
-0.125,0.391,0.662,197.458,-43.252,32.160
-0.112,0.433,0.599,197.718,-42.130,30.664
-0.104,0.467,0.557,194.870,-37.092,28.634
-0.099,0.511,0.511,189.321,-30.366,25.275
-0.093,0.569,0.496,182.008,-25.183,22.244
-0.089,0.609,0.474,173.672,-21.076,20.099
-0.089,0.646,0.448,164.603,-17.328,19.458
-0.077,0.680,0.427,155.947,-15.595,19.275
-0.101,0.701,0.431,147.534,-15.504,19.885
-0.096,0.721,0.415,139.466,-14.038,21.412
-0.081,0.726,0.397,131.397,-12.008,23.496
-0.085,0.743,0.404,123.626,-9.313,26.855
-0.063,0.767,0.395,117.916,-9.992,31.511
-0.050,0.791,0.381,114.336,-11.580,36.527
-0.042,0.778,0.380,112.489,-13.664,40.756
-0.022,0.801,0.385,111.336,-16.641,43.595
0.005,0.793,0.366,109.870,-20.115,44.908
0.019,0.790,0.360,108.504,-23.420,44.733
0.032,0.798,0.343,106.519,-27.229,43.679
0.058,0.812,0.325,105.313,-30.626,40.794
0.071,0.820,0.302,104.008,-29.122,37.748
0.071,0.821,0.291,102.580,-25.977,33.847
0.073,0.843,0.281,101.252,-23.321,31.389
0.081,0.854,0.271,100.397,-20.687,30.328
0.092,0.867,0.263,100.763,-16.252,30.351
0.088,0.874,0.252,100.771,-10.763,30.740
0.083,0.873,0.258,101.107,-10.191,31.305
0.094,0.892,0.250,102.252,-11.359,31.641
0.109,0.885,0.233,104.084,-12.221,31.405
0.100,0.895,0.213,107.214,-12.321,30.611
0.115,0.909,0.200,109.695,-11.168,30.176
0.111,0.910,0.194,111.290,-9.298,29.634
0.112,0.923,0.183,111.321,-8.817,29.481
0.110,0.922,0.161,111.305,-11.550,29.885
0.109,0.937,0.143,111.733,-15.206,30.595
0.115,0.941,0.116,111.061,-15.275,30.870
0.119,0.939,0.098,109.321,-14.038,31.359
0.124,0.930,0.065,106.214,-13.672,31.443
0.129,0.950,0.066,101.191,-16.435,30.267
0.138,0.951,0.033,95.481,-19.176,29.061
0.156,0.948,-0.012,89.679,-20.718,26.756
0.166,0.964,-0.032,82.435,-19.130,23.870
0.167,0.963,-0.066,75.954,-15.786,21.344
0.167,0.971,-0.072,69.275,-11.466,18.473
0.170,0.972,-0.073,62.000,-5.847,16.229
0.166,0.973,-0.076,53.916,-2.405,13.710
0.163,0.980,-0.080,46.580,-0.969,12.344
0.154,0.978,-0.087,39.840,-0.878,11.321
0.150,0.979,-0.090,34.000,-2.504,10.015
0.156,0.983,-0.090,28.641,-5.466,9.305
0.171,0.986,-0.101,24.015,-6.992,9.168
0.177,0.979,-0.108,19.397,-6.290,8.885
0.183,0.973,-0.117,14.405,-3.710,8.534
0.179,0.973,-0.103,9.122,-1.198,8.008
0.181,0.977,-0.108,4.099,0.779,7.183
0.189,0.983,-0.097,0.519,3.527,6.336
0.192,0.988,-0.094,-2.260,7.878,5.099
0.176,0.976,-0.053,-4.061,11.260,4.466
0.178,0.985,-0.038,-5.740,8.802,4.107
0.175,0.981,-0.031,-6.206,5.450,4.679
0.181,0.980,-0.025,-5.450,3.534,5.328
0.193,0.973,-0.015,-3.382,3.328,6.550
0.194,0.970,-0.010,-1.061,3.748,7.267
0.207,0.964,-0.000,0.863,5.084,6.863
0.204,0.971,0.018,2.023,3.924,5.511
0.204,0.970,0.002,3.275,2.115,4.336
0.211,0.977,-0.002,4.351,2.237,2.664
0.215,0.982,0.007,4.809,2.962,0.832
0.209,0.978,0.009,4.885,2.939,-0.305
0.204,0.976,0.001,4.924,2.130,-1.473
0.198,0.986,-0.001,5.061,0.908,-2.115
0.207,0.985,-0.003,5.832,0.458,-2.099
0.199,0.980,-0.014,6.359,0.626,-2.412
0.193,0.990,-0.003,6.344,0.588,-2.534
0.195,0.985,-0.013,6.588,-0.794,-2.496
0.184,0.986,-0.014,6.855,-1.321,-2.366
0.184,0.986,-0.017,7.061,-2.374,-2.008
0.186,0.984,-0.019,7.191,-2.740,-1.504
0.177,0.991,-0.032,7.473,-2.084,-1.015
0.179,0.996,-0.047,8.130,-1.313,-0.534
0.188,0.984,-0.046,8.321,-0.824,0.122
0.175,0.976,-0.031,7.649,-0.771,-0.282
0.177,0.989,-0.051,6.198,-1.641,-0.763
0.183,0.991,-0.050,5.901,-2.031,-1.305
0.179,0.976,-0.057,5.908,-1.160,-1.099
0.177,0.978,-0.047,6.344,-1.458,-1.473

0.268,0.926,-0.616,-100.023,-8.130,-45.267
0.285,0.939,-0.709,-128.214,18.275,-51.023
0.260,0.896,-0.729,-163.870,50.420,-56.634
0.236,0.830,-0.750,-214.733,87.962,-62.519
0.184,0.741,-0.680,-250.137,106.366,-68.168
0.096,0.596,-0.545,-250.137,94.183,-75.229
0.040,0.437,-0.448,-250.137,73.061,-84.168
0.008,0.323,-0.328,-250.137,72.641,-94.099
-0.039,0.238,-0.156,-250.137,85.397,-101.702
-0.102,0.186,0.087,-250.137,95.679,-105.008
-0.136,0.155,0.257,-250.137,101.076,-105.160
-0.211,0.128,0.498,-250.137,107.771,-104.405
-0.260,0.102,0.712,-250.137,112.458,-102.473
-0.281,0.123,0.934,-250.137,109.160,-96.405
-0.325,0.108,1.212,-250.137,93.969,-85.756
-0.336,0.102,1.474,-250.137,80.634,-71.481
-0.363,0.084,1.706,-250.137,73.832,-60.298
-0.387,0.073,1.888,-250.137,65.603,-51.878
-0.456,0.046,2.000,-214.611,53.863,-42.641
-0.437,0.045,2.000,-150.260,44.794,-31.588
-0.514,0.065,2.000,-82.069,26.420,-17.061
-0.498,0.084,2.000,-25.885,9.641,-2.595
-0.474,0.130,2.000,27.008,-9.718,13.924
-0.419,0.148,1.892,64.061,-19.832,27.168
-0.376,0.168,1.740,88.473,-26.160,36.069
-0.326,0.188,1.585,108.290,-33.267,43.176
-0.268,0.201,1.420,122.221,-38.145,47.397
-0.230,0.233,1.289,133.260,-42.443,49.351
-0.176,0.249,1.172,143.053,-44.214,49.481
-0.142,0.267,1.066,151.679,-44.626,48.557
-0.120,0.280,0.974,159.504,-43.679,46.397
-0.095,0.303,0.872,168.649,-40.420,43.160
-0.092,0.333,0.794,176.649,-36.542,40.794
-0.063,0.362,0.715,183.053,-29.160,38.397
-0.079,0.409,0.687,186.809,-23.840,35.626
-0.093,0.436,0.657,187.420,-20.504,32.427
-0.092,0.477,0.623,186.786,-18.748,30.061
-0.085,0.532,0.603,184.458,-17.817,28.221
-0.070,0.578,0.551,181.069,-16.634,27.779
-0.080,0.613,0.583,175.282,-13.748,27.908
-0.063,0.647,0.549,169.092,-9.145,28.496
-0.070,0.673,0.563,164.244,-7.893,30.557
-0.063,0.690,0.546,161.634,-10.183,34.130
-0.059,0.689,0.529,161.802,-12.985,37.458
-0.043,0.703,0.500,162.580,-12.931,40.939
-0.036,0.712,0.470,163.664,-11.534,42.901
-0.023,0.725,0.432,163.786,-10.824,45.366
-0.014,0.746,0.418,162.710,-11.969,47.756
-0.002,0.779,0.399,161.000,-12.985,51.198
0.026,0.799,0.365,159.504,-8.763,55.466
0.008,0.809,0.374,157.069,-5.954,60.443
0.013,0.816,0.351,155.534,-10.519,65.359
0.035,0.820,0.344,154.725,-17.473,70.229
0.032,0.816,0.328,154.000,-24.527,73.046
0.052,0.830,0.294,152.878,-30.015,73.771
0.090,0.818,0.255,151.275,-33.298,73.160
0.117,0.832,0.212,149.504,-34.656,71.977
0.134,0.848,0.189,146.573,-31.115,68.519
0.162,0.855,0.148,143.099,-28.015,64.466
0.174,0.857,0.127,140.229,-26.275,60.870
0.192,0.866,0.094,137.603,-25.916,56.733
0.212,0.864,0.073,134.374,-25.817,51.481
0.219,0.874,0.034,131.618,-23.893,46.206
0.242,0.881,0.001,127.351,-19.603,40.679
0.245,0.903,-0.003,121.038,-16.145,34.573
0.245,0.903,-0.027,113.237,-14.779,28.351
0.245,0.907,-0.048,104.756,-15.763,22.412
0.246,0.911,-0.073,95.298,-18.145,16.168
0.243,0.923,-0.091,85.725,-19.267,9.588
0.248,0.941,-0.115,75.817,-21.779,4.031
0.242,0.943,-0.101,66.977,-23.466,0.237
0.235,0.947,-0.136,59.496,-22.664,-2.824
0.228,0.958,-0.134,51.947,-18.611,-4.802
0.236,0.961,-0.171,45.160,-11.611,-6.053
0.237,0.967,-0.162,38.649,-6.313,-6.137
0.221,0.970,-0.159,33.023,-4.374,-5.252
0.218,0.967,-0.153,27.687,-3.863,-5.023
0.208,0.967,-0.153,21.916,-3.702,-4.924
0.211,0.963,-0.150,16.214,-4.473,-5.840
0.208,0.962,-0.159,11.290,-3.710,-6.939
0.196,0.963,-0.145,5.611,-1.168,-8.420
0.194,0.972,-0.141,1.328,-0.473,-9.229
0.190,0.977,-0.128,-1.763,1.580,-8.939
0.184,0.978,-0.129,-3.718,4.290,-8.450
0.179,0.983,-0.107,-5.099,7.344,-7.015
0.173,0.975,-0.078,-6.733,8.084,-5.214
0.162,0.979,-0.061,-7.916,4.878,-3.824
0.167,0.982,-0.045,-7.977,-0.038,-2.710
0.173,0.979,-0.048,-6.153,-3.519,-1.634
0.179,0.978,-0.048,-3.427,-3.000,-0.481
0.182,0.983,-0.046,-0.954,-0.397,-0.008
0.189,0.983,-0.034,1.687,3.496,0.038
0.178,0.987,-0.028,3.519,5.718,0.061
0.179,0.990,-0.021,4.664,6.099,0.191
0.179,0.990,-0.018,4.756,5.260,0.366
0.177,0.998,-0.014,4.359,2.595,0.672
0.173,0.992,-0.005,3.527,-0.046,1.076
0.176,0.994,-0.016,3.611,-2.282,1.496
0.187,0.997,-0.017,4.840,-2.771,1.595
0.187,0.991,-0.031,7.168,-0.718,2.252
0.187,0.988,-0.039,9.420,2.023,2.802
0.193,0.989,-0.049,10.840,3.718,3.160
0.189,0.979,-0.051,11.328,5.992,2.985
0.181,0.988,-0.047,11.000,6.298,2.626
0.183,0.986,-0.048,9.588,3.817,2.847
0.180,0.988,-0.047,7.802,0.794,2.832
0.191,0.981,-0.062,6.229,0.542,2.771
0.192,0.990,-0.056,4.137,-0.542,2.275
0.192,0.991,-0.054,2.855,-3.023,2.008
0.194,0.980,-0.066,2.733,-3.863,1.565
0.192,0.992,-0.071,3.374,-1.870,1.458
0.195,0.988,-0.073,4.084,0.160,1.420
0.190,0.987,-0.073,4.229,-1.336,1.580
0.199,0.985,-0.066,4.099,-2.611,2.405
0.200,0.985,-0.068,3.153,-2.336,2.618
0.211,0.979,-0.082,2.137,-1.687,2.496
0.209,0.976,-0.085,1.069,-0.168,1.481
0.209,0.970,-0.069,-0.092,0.397,0.389
0.213,0.967,-0.078,-0.305,-0.122,-0.687

0.277,0.933,-0.619,-136.008,-51.748,-44.832
0.268,0.910,-0.651,-159.924,-24.977,-48.099
0.288,0.859,-0.698,-188.244,12.809,-49.954
0.285,0.829,-0.710,-221.397,50.931,-52.374
0.261,0.737,-0.657,-250.137,82.565,-56.786
0.203,0.597,-0.569,-250.137,101.382,-67.137
0.144,0.453,-0.449,-250.137,105.695,-81.359
0.092,0.349,-0.339,-250.137,105.954,-95.260
0.048,0.265,-0.237,-250.137,108.389,-108.389
-0.021,0.169,-0.100,-250.137,117.947,-118.351
-0.089,0.112,0.050,-250.137,137.305,-126.847
-0.183,0.078,0.249,-250.137,152.763,-131.389
-0.243,0.052,0.444,-250.137,164.756,-132.183
-0.277,0.056,0.620,-250.137,169.588,-129.031
-0.355,0.010,0.898,-250.137,166.069,-122.000
-0.395,-0.019,1.129,-250.137,158.160,-113.603
-0.528,-0.061,1.495,-250.137,150.626,-103.534
-0.563,-0.099,1.688,-250.137,133.168,-91.122
-0.686,-0.089,2.000,-250.137,110.382,-78.160
-0.740,-0.114,2.000,-240.092,80.519,-57.092
-0.775,-0.106,2.000,-156.290,53.405,-35.435
-0.778,-0.077,2.000,-75.000,29.382,-13.336
-0.775,-0.029,2.000,-4.214,3.969,8.069
-0.719,-0.014,2.000,54.092,-18.786,27.656
-0.619,0.005,2.000,100.817,-34.832,44.847
-0.527,0.042,1.771,130.664,-44.618,56.901
-0.455,0.067,1.598,146.260,-46.885,63.527
-0.396,0.096,1.470,155.275,-47.466,66.611
-0.345,0.115,1.316,165.008,-48.901,68.313
-0.299,0.125,1.177,177.053,-52.008,68.450
-0.260,0.162,1.063,187.450,-53.695,67.275
-0.222,0.192,0.961,197.115,-55.344,65.191
-0.207,0.218,0.858,205.931,-53.763,63.023
-0.194,0.251,0.784,213.603,-49.672,61.008
-0.180,0.287,0.734,218.863,-42.038,59.626
-0.176,0.341,0.675,222.038,-33.847,58.947
-0.161,0.403,0.628,224.252,-28.496,60.321
-0.151,0.450,0.592,224.626,-26.565,62.076
-0.137,0.484,0.544,222.969,-26.023,63.137
-0.110,0.532,0.505,219.053,-24.573,63.344
-0.105,0.572,0.485,212.947,-24.137,62.237
-0.101,0.611,0.455,203.779,-21.962,59.626
-0.076,0.639,0.409,193.855,-19.420,56.466
-0.068,0.666,0.400,183.817,-16.290,53.939
-0.061,0.682,0.377,173.626,-14.916,52.069
-0.044,0.698,0.374,163.870,-15.244,50.924
-0.024,0.728,0.327,153.832,-15.626,50.092
-0.010,0.749,0.321,146.725,-13.641,49.588
0.004,0.771,0.303,141.389,-12.160,49.267
0.003,0.779,0.298,137.389,-11.489,48.145
0.006,0.783,0.296,134.496,-12.427,48.076
0.018,0.800,0.298,132.771,-16.229,49.031
0.038,0.819,0.284,133.031,-19.168,50.382
0.051,0.833,0.265,134.725,-20.916,51.153
0.069,0.839,0.248,135.443,-21.519,51.878
0.078,0.846,0.219,135.366,-24.260,51.397
0.099,0.843,0.202,133.611,-24.214,50.908
0.096,0.850,0.194,130.733,-19.725,49.084
0.100,0.862,0.185,127.908,-20.756,46.252
0.111,0.865,0.161,125.435,-21.313,43.672
0.106,0.867,0.131,123.573,-23.366,40.481
0.129,0.890,0.098,122.267,-22.573,38.366
0.135,0.892,0.090,120.733,-20.908,35.847
0.147,0.906,0.053,118.756,-21.237,33.198
0.148,0.917,0.044,115.824,-20.458,30.779
0.146,0.923,0.037,112.893,-21.153,28.176
0.162,0.930,-0.005,109.160,-23.076,25.618
0.174,0.943,-0.042,105.183,-21.168,23.015
0.165,0.952,-0.032,100.893,-17.153,19.931
0.177,0.936,-0.079,96.496,-13.802,16.611
0.158,0.938,-0.074,90.038,-12.145,13.550
0.151,0.958,-0.087,83.443,-15.023,11.076
0.148,0.966,-0.090,77.656,-17.588,9.160
0.152,0.965,-0.106,71.802,-18.565,7.855
0.147,0.968,-0.132,65.702,-18.588,6.466
0.158,0.965,-0.144,59.244,-18.084,5.954
0.154,0.979,-0.157,51.244,-16.038,5.092
0.152,0.979,-0.160,43.947,-15.008,3.817
0.157,0.995,-0.164,36.107,-12.595,2.321
0.156,0.997,-0.171,28.893,-9.771,1.122
0.161,0.999,-0.175,21.405,-5.397,-0.145
0.165,0.995,-0.167,13.939,-0.962,-0.725
0.150,0.996,-0.159,7.382,2.847,-1.038
0.145,1.005,-0.148,2.840,3.435,-1.496
0.149,0.994,-0.142,-1.672,2.542,-1.435
0.145,0.982,-0.118,-5.641,1.275,-1.359
0.142,0.987,-0.112,-8.374,0.664,-1.336
0.142,0.984,-0.104,-9.855,0.656,-0.992
0.143,0.981,-0.097,-10.130,1.435,-0.435
0.145,0.971,-0.091,-9.779,4.160,-0.733
0.148,0.984,-0.074,-9.359,7.031,-0.901
0.144,0.979,-0.067,-9.565,7.321,-1.351
0.142,0.981,-0.053,-9.603,6.076,-1.588
0.140,0.982,-0.052,-9.817,6.191,-1.992
0.139,0.999,-0.027,-9.573,5.595,-2.214
0.142,0.996,-0.027,-9.153,2.847,-1.893
0.139,0.997,-0.026,-8.176,-0.687,-1.252
0.153,0.996,-0.030,-6.107,-1.427,-0.702
0.153,0.997,-0.035,-3.748,-0.115,-0.740
0.155,0.996,-0.030,-1.641,1.740,-0.733
0.151,0.989,-0.019,0.328,5.008,-1.550
0.142,0.986,-0.021,1.626,7.237,-2.275
0.135,0.986,-0.003,2.145,7.198,-2.595
0.129,0.992,0.004,2.824,4.191,-2.069
0.132,0.999,-0.008,3.595,0.038,-1.939
0.140,1.003,-0.030,5.000,-3.183,-1.168
0.141,0.993,-0.019,6.015,-3.786,-0.817
0.134,1.001,-0.042,6.847,-3.588,-0.779
0.141,0.999,-0.040,7.817,-2.626,-0.977
0.127,0.997,-0.050,7.916,-0.679,-1.221
0.128,0.999,-0.047,7.366,0.420,-1.588
0.127,1.002,-0.052,6.573,0.504,-1.305
0.126,1.002,-0.051,6.031,0.618,-0.786
0.118,0.995,-0.065,5.267,0.733,0.260
0.135,0.996,-0.065,4.397,1.382,1.252
0.132,0.997,-0.069,3.534,1.183,1.878
0.137,0.991,-0.075,3.527,0.397,1.817
0.145,0.986,-0.068,3.534,-0.076,1.504
0.148,0.985,-0.065,3.458,1.580,0.802

0.243,0.944,-0.661,-81.977,-90.191,-35.916
0.287,0.979,-0.817,-122.969,-71.229,-42.198
0.252,0.900,-0.997,-178.412,-23.450,-45.901
0.249,0.826,-1.055,-241.656,25.443,-47.641
0.199,0.710,-1.030,-250.137,71.664,-52.061
0.102,0.479,-0.880,-250.137,116.046,-63.351
0.038,0.315,-0.679,-250.137,140.855,-79.176
-0.013,0.156,-0.462,-250.137,153.634,-94.351
-0.073,0.020,-0.246,-250.137,169.947,-105.344
-0.171,-0.042,0.042,-250.137,178.756,-113.573
-0.229,-0.043,0.330,-250.137,179.366,-118.962
-0.312,-0.103,0.621,-250.137,171.771,-122.198
-0.381,-0.103,0.913,-250.137,162.321,-124.573
-0.421,-0.067,1.189,-250.137,154.534,-123.023
-0.494,-0.088,1.445,-250.137,136.542,-116.679
-0.559,-0.075,1.802,-250.137,116.847,-104.855
-0.666,-0.073,2.000,-250.137,92.992,-89.061
-0.760,-0.024,2.000,-224.061,59.458,-67.198
-0.795,-0.010,2.000,-140.939,27.412,-40.908
-0.820,-0.003,2.000,-60.885,-8.298,-7.359
-0.749,0.053,2.000,11.573,-36.282,25.244
-0.638,0.052,2.000,71.206,-50.183,51.130
-0.534,0.043,2.000,110.603,-53.466,67.603
-0.445,0.056,1.801,139.992,-52.466,78.405
-0.372,0.070,1.622,161.450,-50.038,84.420
-0.303,0.104,1.436,178.458,-50.221,86.389
-0.267,0.130,1.296,192.298,-52.794,84.947
-0.246,0.155,1.181,201.885,-55.122,81.817
-0.217,0.189,1.068,211.313,-57.916,77.527
-0.192,0.220,0.954,219.290,-60.588,73.832
-0.156,0.272,0.813,226.496,-57.137,71.458
-0.146,0.318,0.724,231.786,-53.061,70.115
-0.140,0.356,0.671,234.565,-47.687,70.168
-0.117,0.380,0.593,235.924,-44.740,71.015
-0.115,0.429,0.538,235.840,-43.084,71.046
-0.095,0.481,0.486,233.931,-42.641,69.916
-0.076,0.547,0.444,228.916,-42.519,67.763
-0.054,0.587,0.400,222.076,-41.137,64.038
-0.039,0.631,0.352,213.656,-40.840,59.221
-0.026,0.674,0.335,202.573,-39.351,53.244
-0.028,0.710,0.309,191.550,-36.305,48.321
-0.009,0.739,0.297,179.061,-34.420,43.832
0.002,0.769,0.281,167.718,-33.588,41.336
0.037,0.793,0.240,158.565,-32.183,41.580
0.031,0.802,0.250,151.237,-28.664,42.908
0.050,0.816,0.232,145.840,-27.122,44.878
0.058,0.812,0.206,141.710,-25.664,46.802
0.062,0.825,0.196,138.267,-26.389,48.275
0.081,0.830,0.206,134.779,-26.000,49.618
0.100,0.835,0.177,131.229,-25.992,50.366
0.113,0.851,0.162,128.573,-28.061,50.183
0.131,0.868,0.135,125.962,-31.802,49.290
0.154,0.872,0.108,124.374,-34.153,48.405
0.170,0.880,0.099,121.672,-32.824,47.206
0.191,0.883,0.051,117.061,-30.389,45.313
0.198,0.888,0.064,109.656,-26.267,43.008
0.205,0.894,0.053,102.176,-23.618,39.534
0.204,0.901,0.038,93.473,-23.855,35.076
0.211,0.900,0.029,85.878,-27.023,30.229
0.217,0.919,0.009,81.626,-29.824,26.023
0.232,0.916,-0.012,78.153,-30.275,21.878
0.240,0.903,-0.037,74.794,-27.977,17.145
0.244,0.926,-0.055,69.786,-23.718,11.931
0.233,0.934,-0.044,63.504,-19.298,7.511
0.229,0.942,-0.052,54.939,-13.893,3.069
0.223,0.955,-0.062,48.511,-10.573,-0.290
0.220,0.961,-0.052,42.435,-8.611,-3.832
0.217,0.957,-0.058,37.542,-6.458,-6.061
0.205,0.964,-0.054,32.962,-2.496,-8.473
0.194,0.966,-0.052,29.260,-0.382,-9.672
0.187,0.971,-0.045,25.511,0.389,-10.275
0.177,0.965,-0.043,21.924,1.595,-10.748
0.160,0.980,-0.036,18.985,1.351,-11.252
0.162,0.983,-0.040,15.221,0.374,-10.656
0.152,0.984,-0.029,11.130,1.443,-9.573
0.143,0.990,-0.031,7.099,1.473,-8.137
0.146,0.996,-0.023,4.504,-0.038,-6.809
0.142,0.994,-0.023,3.076,-0.916,-5.076
0.145,1.000,-0.014,1.908,-1.458,-3.969
0.148,1.002,-0.017,2.183,0.290,-3.031
0.144,0.988,-0.007,3.328,1.603,-1.679
0.150,0.992,-0.002,3.847,3.916,-0.580
0.151,0.994,0.007,4.015,5.099,0.092
0.147,0.984,0.014,3.992,5.947,0.718
0.142,0.987,0.027,3.389,5.160,0.702
0.153,0.993,0.025,3.695,2.672,0.710
0.152,0.986,0.032,4.466,1.397,1.168
0.160,0.981,0.031,6.046,-0.466,1.634
0.158,0.989,0.033,7.939,-3.931,1.969
0.163,0.985,0.016,10.122,-6.542,2.214
0.173,0.983,0.002,12.008,-6.206,2.450
0.187,0.977,-0.013,13.565,-2.931,1.794
0.180,0.980,-0.021,13.771,1.260,1.038
0.173,0.979,-0.031,13.229,1.756,0.305
0.179,0.981,-0.038,11.847,0.588,-0.336
0.170,0.978,-0.044,10.000,0.031,-0.931
0.161,0.983,-0.047,7.008,-0.634,-1.290
0.165,0.976,-0.058,4.565,-2.611,-1.351
0.167,0.986,-0.059,2.145,-1.992,-1.275
0.176,0.978,-0.056,0.450,-0.069,-1.206
0.173,0.983,-0.062,-1.618,3.450,-1.435
0.170,0.991,-0.052,-3.466,4.931,-1.809
0.171,0.990,-0.035,-5.206,5.954,-2.191
0.166,0.993,-0.030,-6.656,7.076,-2.450
0.165,0.993,-0.023,-8.198,9.206,-2.794
0.159,1.000,-0.010,-9.336,10.542,-3.061
0.167,0.994,-0.003,-9.634,10.290,-2.519
0.161,0.987,0.020,-10.015,9.824,-1.878
0.159,0.993,0.033,-9.656,6.298,-1.496
0.166,0.986,0.042,-8.145,3.389,-0.718
0.164,0.985,0.035,-5.450,1.756,0.115
0.168,0.979,0.038,-2.519,2.305,0.092
0.166,0.988,0.034,-0.137,2.725,0.069
0.164,0.990,0.033,1.863,1.061,-0.282
0.165,0.991,0.027,3.641,0.519,-0.588
0.166,0.990,0.019,4.519,1.298,-0.786
0.165,0.999,0.007,3.954,2.618,-0.901
0.153,0.998,0.018,2.695,2.328,-0.969
0.153,0.998,0.017,1.908,2.176,-0.702

0.232,0.902,-0.677,-56.664,-56.519,-37.786
0.295,0.887,-0.908,-81.405,-58.527,-42.985
0.333,0.973,-1.031,-122.206,-33.763,-44.794
0.341,0.895,-1.252,-186.748,16.107,-42.779
0.285,0.757,-1.382,-250.137,66.366,-41.336
0.160,0.510,-1.346,-250.137,122.687,-49.618
0.067,0.259,-1.169,-250.137,174.710,-71.802
-0.112,-0.021,-0.785,-250.137,186.168,-99.130
-0.187,-0.197,-0.406,-250.137,163.061,-114.702
-0.210,-0.325,-0.103,-250.137,146.214,-118.122
-0.256,-0.432,0.249,-250.137,147.718,-114.824
-0.263,-0.444,0.621,-250.137,151.565,-109.267
-0.316,-0.468,1.080,-250.137,149.282,-100.969
-0.302,-0.395,1.552,-250.137,128.229,-93.832
-0.351,-0.365,2.000,-250.137,116.969,-86.321
-0.341,-0.237,2.000,-250.137,114.824,-76.305
-0.471,-0.175,2.000,-227.977,108.603,-63.115
-0.603,-0.174,2.000,-113.198,78.779,-45.015
-0.713,-0.133,2.000,-21.130,38.153,-23.626
-0.730,-0.093,2.000,46.374,-5.260,-1.015
-0.678,-0.064,2.000,92.794,-41.389,20.901
-0.570,-0.027,2.000,120.550,-66.725,39.053
-0.438,0.009,1.845,138.275,-77.450,52.832
-0.329,0.053,1.633,148.282,-73.412,60.824
-0.249,0.081,1.454,156.893,-63.588,65.481
-0.197,0.112,1.316,165.183,-55.084,66.916
-0.148,0.141,1.204,174.947,-49.557,65.962
-0.130,0.164,1.114,186.603,-47.038,63.229
-0.109,0.185,1.021,198.282,-45.664,60.000
-0.095,0.216,0.920,211.573,-45.763,57.069
-0.089,0.238,0.850,225.573,-44.137,55.137
-0.091,0.275,0.756,238.031,-43.481,53.656
-0.079,0.302,0.683,247.840,-42.725,53.145
-0.076,0.363,0.610,250.130,-41.718,52.687
-0.066,0.391,0.543,250.130,-41.931,52.290
-0.045,0.442,0.496,250.130,-37.863,51.000
-0.042,0.504,0.466,250.130,-33.473,48.580
-0.044,0.567,0.441,243.603,-31.427,45.237
-0.029,0.628,0.398,231.634,-29.015,41.038
-0.014,0.671,0.375,217.924,-25.565,37.519
-0.008,0.727,0.340,204.969,-23.519,35.756
0.024,0.759,0.314,193.450,-20.351,35.908
0.030,0.773,0.297,183.748,-15.527,37.779
0.042,0.786,0.270,177.733,-13.008,40.519
0.055,0.795,0.242,173.153,-12.008,44.275
0.073,0.806,0.224,169.053,-11.046,47.977
0.075,0.781,0.221,162.863,-11.809,51.603
0.089,0.793,0.209,155.053,-15.031,53.634
0.113,0.816,0.183,148.130,-22.076,54.336
0.144,0.826,0.154,143.321,-26.908,54.282
0.179,0.838,0.125,139.603,-29.450,53.000
0.187,0.849,0.106,136.000,-30.557,50.427
0.194,0.854,0.089,130.885,-32.779,47.206
0.209,0.869,0.076,124.786,-34.786,43.122
0.232,0.872,0.029,118.107,-35.832,38.168
0.231,0.857,0.006,110.374,-32.802,33.145
0.252,0.882,-0.015,102.725,-29.336,27.817
0.258,0.890,-0.020,94.908,-24.290,22.260
0.258,0.896,-0.040,86.817,-20.176,16.832
0.264,0.909,-0.061,77.580,-18.802,11.427
0.257,0.908,-0.072,69.344,-19.115,6.710
0.246,0.915,-0.080,61.084,-18.992,1.817
0.253,0.928,-0.095,52.206,-17.321,-3.817
0.247,0.950,-0.094,43.298,-12.748,-8.420
0.237,0.945,-0.095,34.954,-3.420,-13.115
0.217,0.958,-0.083,28.664,4.023,-16.008
0.197,0.964,-0.061,22.290,7.794,-17.832
0.175,0.965,-0.041,16.550,8.687,-18.611
0.162,0.972,-0.031,12.282,8.305,-18.603
0.146,0.983,-0.020,9.786,9.000,-17.588
0.135,0.982,-0.005,8.076,7.366,-15.481
0.126,0.994,0.005,6.618,3.779,-12.511
0.121,0.993,0.008,5.756,-0.229,-9.649
0.130,0.995,0.005,5.565,-3.466,-6.649
0.133,0.998,0.016,5.916,-2.947,-4.229
0.132,0.991,0.032,5.443,-1.908,-2.275
0.129,0.995,0.039,4.191,-3.260,-0.931
0.136,0.988,0.038,4.527,-4.153,0.626
0.135,0.987,0.046,4.855,-3.168,1.290
0.125,0.991,0.047,6.061,-2.908,1.649
0.139,0.990,0.046,7.160,-3.534,1.947
0.145,0.995,0.042,8.809,-3.305,2.702
0.149,0.991,0.043,9.733,-2.618,3.382
0.156,0.998,0.031,11.008,-1.786,3.771
0.157,0.991,0.030,12.626,-0.580,4.427
0.166,0.987,0.021,13.901,0.038,4.450
0.181,0.975,0.009,13.473,0.008,4.389
0.181,0.979,0.008,11.435,-0.122,3.229
0.174,0.981,0.026,9.107,-0.687,1.870
0.177,0.972,0.008,6.916,-1.031,0.366
0.183,0.977,0.004,5.519,-0.641,-0.672
0.187,0.972,0.001,4.702,0.870,-1.542
0.184,0.974,0.002,3.992,3.160,-2.687
0.181,0.980,-0.001,3.885,4.107,-3.176
0.174,0.978,0.007,4.145,3.595,-3.435
0.172,0.982,-0.010,4.679,3.534,-2.924
0.169,0.982,-0.007,4.802,3.786,-2.557
0.175,0.976,0.001,4.015,3.977,-1.901
0.169,0.987,0.003,3.015,2.863,-1.206
0.177,0.982,0.000,1.580,1.260,-0.893
0.167,0.987,0.002,-0.458,1.359,-1.092
0.180,0.981,-0.003,-1.916,1.679,-1.481
0.176,0.982,0.008,-3.756,2.702,-2.565
0.172,0.983,0.019,-4.427,2.931,-3.382
0.171,0.982,0.027,-4.023,1.504,-4.038
0.172,0.982,0.019,-3.145,1.160,-4.779
0.173,0.983,0.017,-1.985,2.588,-5.817
0.167,0.987,0.023,-0.679,4.443,-6.023
0.168,0.983,0.012,-0.084,6.786,-5.969
0.157,0.984,0.028,-0.336,7.740,-6.168
0.157,0.995,0.035,-0.702,7.305,-5.809
0.150,0.990,0.037,-0.939,6.710,-5.580
0.149,0.994,0.029,-0.908,6.115,-5.267
0.138,0.991,0.035,-0.702,4.267,-5.130
0.136,0.993,0.041,-0.168,1.359,-4.550
0.131,0.994,0.043,0.244,-0.321,-3.840
0.143,0.997,0.034,0.649,-0.290,-3.450
0.135,1.002,0.029,1.107,0.962,-2.992
0.143,0.999,0.023,1.626,2.847,-2.420

0.268,0.945,-0.548,-97.176,-92.855,-41.336
0.286,0.925,-0.670,-136.344,-106.130,-46.672
0.307,0.910,-0.758,-183.992,-109.603,-46.137
0.281,0.845,-0.916,-247.412,-104.924,-41.664
0.262,0.711,-0.970,-250.137,-68.634,-38.229
0.249,0.561,-0.947,-250.137,13.137,-40.824
0.177,0.376,-0.755,-250.137,111.206,-55.916
0.067,0.204,-0.467,-250.137,182.244,-74.198
0.000,0.118,-0.174,-250.137,249.939,-96.061
-0.041,0.023,0.042,-250.137,250.130,-112.580
-0.171,-0.056,0.391,-250.137,250.130,-128.191
-0.362,-0.079,0.858,-250.137,250.130,-138.924
-0.487,-0.024,1.195,-250.137,250.130,-143.672
-0.568,0.014,1.481,-250.137,221.046,-141.313
-0.698,0.110,1.839,-250.137,168.260,-131.405
-0.768,0.243,2.000,-247.695,118.313,-115.420
-0.827,0.285,2.000,-174.084,67.481,-93.565
-0.866,0.325,2.000,-93.794,25.916,-61.878
-0.896,0.370,2.000,-22.305,-3.137,-26.725
-0.831,0.356,2.000,36.351,-21.740,9.718
-0.766,0.354,1.952,76.053,-29.115,38.504
-0.692,0.339,1.792,99.664,-30.481,57.366
-0.599,0.331,1.639,118.786,-30.427,72.359
-0.523,0.321,1.503,133.374,-30.641,81.221
-0.451,0.311,1.345,148.511,-30.969,85.183
-0.388,0.328,1.228,162.031,-33.099,86.107
-0.340,0.338,1.125,174.977,-34.634,85.969
-0.296,0.374,1.016,189.046,-36.145,85.771
-0.259,0.385,0.893,204.000,-37.336,86.153
-0.228,0.394,0.785,219.626,-38.489,87.908
-0.205,0.415,0.686,231.931,-36.267,89.214
-0.184,0.448,0.606,241.046,-35.534,89.870
-0.153,0.485,0.527,245.947,-33.664,89.908
-0.139,0.523,0.467,248.573,-31.542,88.366
-0.123,0.569,0.413,248.771,-34.115,84.924
-0.104,0.620,0.365,246.260,-40.298,80.076
-0.073,0.671,0.293,240.313,-43.160,74.313
-0.044,0.726,0.233,232.565,-39.679,68.405
-0.029,0.769,0.205,221.580,-31.817,62.275
-0.019,0.792,0.168,212.000,-26.366,59.366
-0.011,0.815,0.155,202.321,-23.435,58.794
-0.002,0.832,0.124,193.947,-21.916,60.748
0.017,0.833,0.086,187.069,-21.863,63.756
0.035,0.840,0.072,181.221,-23.924,66.389
0.049,0.841,0.043,174.641,-27.275,68.504
0.069,0.844,0.012,165.718,-30.809,68.412
0.069,0.849,0.004,157.809,-36.473,67.527
0.109,0.858,-0.051,149.511,-41.595,66.183
0.125,0.876,-0.053,140.908,-42.802,64.221
0.148,0.883,-0.074,133.244,-43.954,61.275
0.157,0.890,-0.090,125.504,-44.198,58.313
0.182,0.889,-0.119,118.641,-44.099,55.298
0.195,0.900,-0.134,111.733,-43.611,52.122
0.213,0.897,-0.168,105.611,-43.687,48.527
0.221,0.906,-0.201,100.420,-43.313,44.565
0.225,0.887,-0.171,95.733,-43.183,41.061
0.198,0.917,-0.148,92.206,-52.565,37.588
0.211,0.908,-0.120,85.366,-51.496,31.115
0.230,0.940,-0.179,79.725,-51.779,24.145
0.227,0.917,-0.177,74.466,-49.168,17.977
0.240,0.927,-0.215,68.374,-45.107,12.290
0.237,0.947,-0.232,61.802,-39.977,6.878
0.228,0.949,-0.254,53.992,-32.977,0.748
0.231,0.967,-0.276,46.771,-26.260,-4.061
0.225,0.977,-0.294,39.542,-17.382,-8.634
0.209,0.979,-0.287,31.580,-8.107,-12.756
0.199,0.980,-0.297,22.885,1.496,-15.466
0.178,0.991,-0.269,13.947,9.313,-17.122
0.163,0.998,-0.262,6.198,14.649,-17.466
0.155,1.003,-0.237,-1.802,16.634,-17.260
0.132,0.996,-0.217,-8.725,14.618,-16.008
0.120,0.993,-0.204,-14.458,8.924,-14.092
0.113,0.994,-0.192,-17.939,4.588,-11.847
0.114,0.981,-0.184,-18.962,2.870,-9.260
0.115,0.990,-0.175,-18.565,2.725,-6.534
0.118,0.984,-0.186,-17.221,4.649,-4.420
0.120,0.990,-0.170,-16.076,8.870,-2.519
0.130,0.992,-0.157,-15.267,13.519,-0.893
0.119,0.998,-0.128,-16.092,14.595,0.023
0.117,0.997,-0.103,-16.847,12.534,0.069
0.117,0.989,-0.102,-16.359,9.458,0.244
0.132,0.989,-0.100,-15.015,7.893,0.328
0.136,0.994,-0.100,-14.046,7.511,0.565
0.138,0.990,-0.085,-12.893,6.496,0.817
0.142,0.992,-0.088,-11.115,4.679,0.939
0.152,0.987,-0.092,-9.160,6.176,1.374
0.154,0.997,-0.075,-7.473,7.412,1.336
0.156,0.995,-0.072,-6.107,6.084,1.664
0.148,0.983,-0.066,-4.969,4.031,1.855
0.165,0.995,-0.068,-3.679,2.527,1.344
0.165,0.996,-0.080,-1.954,2.870,0.641
0.157,0.988,-0.077,-0.649,3.244,-0.397
0.155,0.990,-0.083,0.481,3.374,-0.740
0.165,0.999,-0.080,1.015,3.328,-0.809
0.152,0.992,-0.094,1.046,1.198,-1.267
0.159,0.991,-0.095,0.458,-1.168,-1.511
0.154,0.990,-0.095,-0.084,-2.023,-2.405
0.154,0.990,-0.105,-0.443,-0.863,-3.107
0.151,0.995,-0.115,-0.389,0.893,-3.473
0.144,0.990,-0.108,-0.542,3.290,-3.710
0.142,0.988,-0.108,-0.176,5.076,-3.863
0.134,0.987,-0.097,-1.168,4.679,-3.954
0.130,0.993,-0.100,-2.359,2.954,-3.870
0.127,0.991,-0.098,-2.641,1.542,-3.733
0.135,0.984,-0.100,-2.046,1.489,-3.115
0.126,0.992,-0.091,-1.611,4.244,-2.511
0.119,0.999,-0.085,-1.092,5.107,-2.008
0.117,1.007,-0.077,-0.344,3.878,-1.038
0.110,1.005,-0.072,0.580,2.023,0.137
0.119,1.008,-0.070,1.427,0.847,1.115
0.115,1.009,-0.080,2.198,0.527,1.649
0.116,1.002,-0.083,2.733,-0.115,2.229
0.125,1.007,-0.084,3.550,-0.420,3.076
0.132,1.007,-0.092,4.611,-0.466,3.710
0.140,1.001,-0.091,5.344,-1.015,4.168
0.130,0.997,-0.098,5.107,-1.595,4.252
0.137,0.996,-0.099,4.496,-3.473,4.084
0.151,0.996,-0.103,3.527,-3.863,3.527
0.159,0.995,-0.120,2.519,-2.244,2.603

0.204,0.875,-0.678,-63.221,-55.595,-29.573
0.274,0.902,-0.898,-89.588,-30.298,-38.641
0.259,0.864,-0.980,-124.779,7.626,-45.031
0.258,0.858,-1.083,-172.168,51.099,-49.023
0.207,0.765,-1.125,-229.863,84.267,-51.031
0.180,0.627,-1.116,-250.137,105.748,-54.626
0.132,0.485,-1.006,-250.137,120.198,-63.802
0.099,0.300,-0.827,-250.137,134.153,-81.672
0.045,0.125,-0.575,-250.137,154.947,-102.893
0.007,0.039,-0.329,-250.137,182.565,-120.344
-0.051,-0.038,-0.069,-250.137,218.412,-135.252
-0.133,-0.091,0.152,-250.137,244.435,-148.221
-0.216,-0.105,0.454,-250.137,250.130,-160.191
-0.362,-0.119,0.804,-250.137,244.435,-170.015
-0.451,-0.101,1.075,-250.137,226.656,-175.885
-0.576,-0.133,1.359,-250.137,196.718,-175.740
-0.709,-0.073,1.771,-250.137,155.771,-164.580
-0.823,-0.028,2.000,-250.137,110.580,-145.038
-0.909,0.026,2.000,-227.534,69.656,-117.489
-0.975,0.046,2.000,-139.733,37.397,-85.176
-1.022,0.053,2.000,-58.389,7.252,-49.885
-1.010,0.091,2.000,8.519,-20.122,-16.145
-0.953,0.130,2.000,65.832,-43.924,16.191
-0.849,0.136,2.000,109.191,-58.893,42.565
-0.720,0.138,1.820,142.053,-67.145,62.794
-0.616,0.156,1.598,167.740,-70.855,76.313
-0.508,0.135,1.375,191.977,-69.786,84.679
-0.427,0.183,1.210,209.763,-64.336,87.672
-0.385,0.204,1.064,221.290,-63.328,87.382
-0.349,0.226,0.948,230.137,-63.260,86.878
-0.290,0.269,0.812,239.389,-61.412,86.336
-0.256,0.305,0.694,248.756,-53.786,86.473
-0.236,0.343,0.626,250.130,-48.947,85.725
-0.234,0.383,0.551,250.130,-50.313,84.695
-0.203,0.417,0.495,250.130,-53.618,82.779
-0.194,0.448,0.436,250.130,-54.153,79.992
-0.160,0.498,0.382,250.130,-50.115,75.130
-0.130,0.584,0.341,247.435,-45.748,70.427
-0.123,0.634,0.309,241.092,-41.115,65.893
-0.116,0.680,0.264,234.481,-37.267,61.305
-0.104,0.720,0.224,227.626,-33.573,57.107
-0.090,0.744,0.198,220.267,-30.351,55.015
-0.096,0.768,0.193,210.252,-26.725,53.710
-0.075,0.792,0.168,199.221,-23.893,53.382
-0.053,0.813,0.125,187.260,-22.191,54.374
-0.036,0.831,0.094,174.931,-20.298,56.061
-0.018,0.849,0.089,164.885,-19.023,57.023
-0.007,0.865,0.066,154.588,-18.664,58.313
-0.004,0.855,0.067,143.664,-17.137,58.687
0.004,0.864,0.058,134.015,-18.863,57.542
0.015,0.880,0.028,125.366,-24.947,56.985
0.062,0.891,-0.003,118.099,-27.053,57.580
0.090,0.911,-0.021,111.031,-25.130,57.748
0.110,0.913,-0.034,104.779,-22.328,56.641
0.129,0.911,-0.037,98.229,-18.527,55.313
0.127,0.909,-0.040,92.885,-15.511,52.664
0.128,0.909,-0.030,87.504,-15.023,49.038
0.151,0.915,-0.037,82.328,-15.878,44.244
0.160,0.910,-0.059,77.252,-16.817,39.298
0.154,0.905,-0.054,72.756,-17.053,34.496
0.161,0.905,-0.066,67.359,-17.122,29.351
0.161,0.915,-0.077,60.229,-17.031,22.779
0.173,0.936,-0.080,52.519,-15.863,16.779
0.174,0.948,-0.088,45.069,-12.992,11.382
0.173,0.964,-0.101,38.198,-8.397,6.809
0.167,0.975,-0.108,33.000,-3.496,3.069
0.152,0.976,-0.110,28.649,-0.023,0.405
0.137,0.979,-0.089,23.214,1.725,-1.840
0.119,0.976,-0.086,18.046,2.931,-4.344
0.121,0.983,-0.099,13.901,6.084,-6.359
0.118,0.983,-0.082,11.122,10.305,-7.137
0.110,0.988,-0.067,8.794,14.511,-6.947
0.097,0.980,-0.046,6.626,16.145,-6.656
0.088,0.993,-0.028,3.687,13.962,-6.565
0.072,0.991,-0.011,0.977,8.985,-6.427
0.070,0.988,-0.012,-1.115,3.290,-5.672
0.068,0.998,-0.008,-2.290,-1.252,-4.748
0.080,1.006,-0.014,-2.603,-3.229,-3.710
0.079,1.000,-0.023,-1.725,-2.641,-2.542
0.079,1.002,-0.024,-0.977,-0.679,-1.473
0.080,1.008,-0.021,-0.489,2.160,-0.695
0.083,1.003,-0.024,-0.489,4.893,-0.046
0.072,0.998,-0.021,-0.618,6.580,0.214
0.073,1.002,-0.014,-1.031,6.962,0.771
0.077,1.000,-0.017,-1.710,7.053,1.420
0.088,0.993,-0.014,-3.260,7.496,1.947
0.084,1.003,0.009,-5.046,8.115,2.229
0.087,0.989,0.015,-7.023,7.473,1.840
0.087,0.989,0.020,-8.397,5.496,1.061
0.095,0.995,0.024,-9.069,4.275,0.557
0.101,0.989,0.014,-8.824,4.206,-0.237
0.100,0.998,0.018,-7.588,4.870,-0.840
0.099,1.000,0.013,-5.595,6.771,-0.580
0.100,0.989,0.022,-3.656,8.847,-0.137
0.100,0.992,0.032,-2.038,8.634,0.374
0.104,0.996,0.037,-2.099,6.863,0.931
0.097,0.984,0.045,-2.893,4.611,0.519
0.111,0.988,0.046,-3.908,3.168,-0.695
0.105,0.982,0.036,-4.282,2.176,-2.053
0.112,0.989,0.031,-3.962,2.435,-3.198
0.108,0.982,0.035,-3.450,4.130,-4.237
0.106,0.988,0.024,-3.267,5.916,-4.855
0.095,0.995,0.032,-2.908,6.153,-5.511
0.091,1.002,0.028,-2.076,6.389,-5.557
0.081,0.995,0.044,-0.885,7.000,-5.069
0.079,1.001,0.051,-0.290,6.313,-4.198
0.066,0.994,0.046,-0.023,3.015,-3.313
0.072,1.004,0.037,0.893,0.321,-2.374
0.082,0.999,0.046,1.992,0.901,-1.168
0.087,0.993,0.050,2.901,1.977,-0.061
0.081,0.992,0.040,3.489,2.038,0.397
0.081,0.990,0.036,4.168,1.099,0.519
0.082,0.993,0.037,4.069,1.351,0.038
0.078,0.999,0.033,3.985,1.504,-0.702
0.079,1.005,0.040,3.855,0.145,-1.298
0.083,1.004,0.030,4.168,-0.954,-1.275
0.072,1.003,0.019,4.649,-0.366,-0.977
0.073,0.998,0.024,5.183,1.870,-0.870
0.073,0.997,0.019,5.313,3.397,-0.466

0.026,0.812,-0.917,-98.748,-202.863,-8.137
0.096,0.833,-1.208,-137.313,-180.779,1.725
0.136,0.821,-1.488,-208.542,-111.794,16.298
0.173,0.660,-1.497,-250.137,-11.282,26.687
0.146,0.500,-1.326,-250.137,87.305,22.382
0.106,0.106,-0.982,-250.137,162.588,3.244
0.121,-0.113,-0.660,-250.137,230.412,-21.328
0.147,-0.316,-0.312,-250.137,250.130,-54.336
-0.021,-0.541,0.174,-250.137,250.130,-83.695
-0.192,-0.677,0.605,-250.137,250.130,-110.634
-0.420,-0.778,1.148,-250.137,250.130,-127.969
-0.473,-0.700,1.593,-250.137,250.130,-133.122
-0.633,-0.593,2.000,-250.137,202.931,-132.321
-0.723,-0.424,2.000,-250.137,122.458,-125.420
-0.750,-0.310,2.000,-250.137,57.855,-108.840
-0.770,-0.196,2.000,-131.718,13.664,-80.618
-0.814,-0.115,2.000,-30.573,-19.374,-49.519
-0.820,-0.082,2.000,59.298,-57.550,-12.580
-0.724,-0.040,2.000,121.794,-81.076,20.252
-0.608,-0.014,2.000,153.992,-83.649,43.641
-0.475,0.033,1.789,170.718,-71.450,62.496
-0.382,0.099,1.603,179.267,-54.580,74.656
-0.331,0.117,1.426,186.824,-33.473,82.588
-0.303,0.145,1.310,190.947,-20.443,84.565
-0.279,0.191,1.223,195.183,-13.489,83.351
-0.260,0.219,1.132,202.229,-12.756,81.557
-0.238,0.248,1.043,213.458,-13.336,80.229
-0.217,0.266,0.963,225.504,-13.458,80.031
-0.201,0.293,0.890,238.176,-14.947,81.496
-0.179,0.309,0.793,250.130,-18.985,85.069
-0.159,0.341,0.694,250.130,-21.099,88.557
-0.150,0.350,0.619,250.130,-18.840,91.443
-0.149,0.364,0.551,250.130,-20.550,93.206
-0.136,0.397,0.509,250.130,-26.534,94.573
-0.111,0.420,0.449,250.130,-33.427,93.916
-0.079,0.476,0.369,250.130,-39.664,90.420
-0.056,0.545,0.312,250.130,-43.153,84.458
-0.014,0.646,0.251,249.809,-48.733,76.069
0.025,0.707,0.211,234.496,-52.031,68.977
0.052,0.757,0.141,216.031,-53.870,61.160
0.084,0.793,0.111,196.344,-49.580,54.695
0.099,0.820,0.081,178.695,-42.458,50.038
0.123,0.835,0.036,159.763,-33.443,46.702
0.130,0.849,0.052,143.733,-25.603,44.160
0.125,0.837,0.030,129.962,-20.924,42.443
0.152,0.852,-0.006,115.611,-17.748,40.069
0.155,0.860,-0.006,102.496,-15.588,37.824
0.176,0.859,-0.003,90.618,-12.954,35.725
0.189,0.884,-0.009,79.740,-12.389,33.328
0.198,0.879,-0.016,69.603,-13.351,30.122
0.201,0.885,-0.016,62.267,-13.420,26.802
0.211,0.890,-0.015,55.840,-11.115,22.405
0.218,0.895,-0.001,49.168,-8.069,17.595
0.208,0.918,0.009,42.359,-9.847,12.473
0.217,0.917,0.019,36.916,-12.366,8.718
0.212,0.912,0.022,33.481,-9.076,6.099
0.212,0.921,0.032,31.092,-4.931,3.260
0.209,0.924,0.041,29.405,-2.176,0.366
0.192,0.916,0.051,28.260,-1.702,-2.137
0.178,0.916,0.057,27.313,-2.122,-4.840
0.164,0.927,0.078,25.985,-3.214,-6.931
0.172,0.937,0.060,23.878,-2.244,-8.527
0.148,0.940,0.058,21.985,-0.145,-9.931
0.141,0.948,0.061,20.221,0.252,-10.840
0.147,0.970,0.068,19.183,0.267,-10.336
0.142,0.971,0.060,18.305,2.084,-9.565
0.145,0.966,0.068,17.435,4.351,-9.504
0.140,0.971,0.066,16.344,5.458,-10.153
0.120,0.973,0.088,14.550,5.763,-11.603
0.105,0.970,0.091,12.908,3.145,-13.038
0.102,0.973,0.087,11.931,0.160,-13.626
0.089,0.975,0.095,11.511,-1.359,-13.809
0.076,0.996,0.089,10.779,-0.588,-13.267
0.069,1.003,0.084,9.427,-1.443,-11.626
0.062,1.000,0.086,7.656,-3.275,-8.588
0.071,0.996,0.084,5.634,-3.794,-5.916
0.063,1.002,0.089,3.679,-4.489,-3.519
0.068,1.002,0.084,2.313,-6.000,-1.046
0.083,0.998,0.073,2.344,-5.344,0.099
0.087,0.986,0.073,2.450,-3.870,1.053
0.095,0.989,0.072,2.160,-2.824,1.130
0.105,0.978,0.072,1.802,-1.664,0.702
0.106,0.980,0.062,1.679,0.008,0.023
0.104,0.981,0.048,1.405,3.733,-1.023
0.105,0.986,0.064,-0.168,6.794,-1.359
0.103,0.980,0.068,-3.214,8.664,-1.443
0.095,0.987,0.080,-6.519,6.519,-1.489
0.098,0.980,0.094,-9.397,3.031,-1.427
0.106,0.980,0.094,-11.336,1.084,-0.840
0.100,0.981,0.093,-11.786,1.076,-0.366
0.108,0.972,0.097,-11.405,2.664,0.214
0.115,0.970,0.115,-10.977,4.298,0.695
0.119,0.973,0.113,-10.649,5.725,1.008
0.116,0.979,0.125,-9.351,4.931,1.313
0.123,0.973,0.117,-7.046,6.405,1.702
0.122,0.977,0.129,-4.160,7.427,2.412
0.120,0.972,0.152,-2.435,5.740,2.595
0.123,0.971,0.151,-1.786,2.198,2.305
0.128,0.963,0.149,-0.565,0.145,1.542
0.124,0.966,0.146,1.160,0.504,0.595
0.127,0.969,0.134,2.939,1.321,-0.191
0.129,0.978,0.135,3.893,1.031,-0.718
0.126,0.976,0.134,5.183,0.580,-0.733
0.116,0.977,0.123,5.695,0.802,-0.733
0.118,0.983,0.113,5.618,3.092,-0.725
0.106,0.980,0.117,4.969,4.626,-1.328
0.104,0.981,0.131,4.198,4.107,-1.649
0.098,0.979,0.138,3.710,2.267,-1.817
0.100,0.978,0.131,4.740,0.664,-1.321
0.107,0.983,0.129,6.656,0.099,-0.763
0.091,0.982,0.124,8.443,-0.832,-0.160
0.099,0.985,0.124,9.702,-1.374,0.771
0.102,0.981,0.113,10.366,-0.802,1.046
0.099,0.980,0.116,10.237,-1.046,1.382
0.092,0.987,0.104,9.107,-1.695,0.733
0.092,0.983,0.106,7.870,-3.099,0.267
0.103,0.989,0.093,7.527,-3.511,0.305
0.101,0.981,0.076,7.748,-2.267,0.366
0.102,0.983,0.075,8.519,0.496,0.527

0.135,0.903,-0.672,-125.664,-237.695,-16.237
0.293,0.851,-0.975,-181.069,-218.534,-10.244
0.391,0.785,-1.240,-244.550,-150.031,1.702
0.305,0.584,-1.116,-250.137,-50.336,3.290
0.323,0.416,-1.142,-250.137,58.183,-9.214
0.250,0.208,-0.878,-250.137,147.321,-35.282
0.193,0.027,-0.634,-250.137,206.763,-64.191
0.121,-0.111,-0.368,-250.137,250.130,-97.237
0.021,-0.208,-0.078,-250.137,250.130,-130.160
-0.183,-0.229,0.387,-250.137,250.130,-156.092
-0.401,-0.173,0.861,-250.137,250.130,-169.733
-0.584,-0.161,1.272,-250.137,250.130,-171.038
-0.716,-0.151,1.574,-250.137,217.466,-164.000
-0.827,-0.109,1.999,-250.137,155.664,-145.679
-0.842,-0.037,2.000,-250.137,103.565,-114.832
-0.877,0.018,2.000,-233.336,70.992,-79.229
-0.919,0.050,2.000,-134.580,41.664,-40.962
-0.937,0.054,2.000,-35.519,2.855,0.206
-0.895,0.048,2.000,38.840,-28.023,33.275
-0.786,0.052,2.000,93.145,-47.237,58.534
-0.656,0.038,2.000,131.206,-57.313,77.382
-0.520,0.071,1.835,156.718,-58.046,89.229
-0.430,0.062,1.612,177.061,-54.023,94.252
-0.368,0.092,1.429,192.244,-52.038,93.809
-0.320,0.128,1.265,205.634,-53.725,89.702
-0.278,0.167,1.107,216.908,-55.504,83.557
-0.249,0.195,0.996,226.153,-53.344,78.992
-0.228,0.224,0.906,235.168,-49.893,75.893
-0.204,0.279,0.802,246.275,-47.527,74.718
-0.189,0.306,0.716,250.130,-43.878,76.214
-0.179,0.338,0.622,250.130,-39.366,77.840
-0.167,0.372,0.561,250.130,-35.511,78.824
-0.155,0.413,0.500,250.130,-36.916,79.840
-0.149,0.464,0.444,250.130,-41.023,79.237
-0.113,0.523,0.383,250.130,-42.771,75.916
-0.078,0.585,0.321,250.130,-40.053,70.687
-0.068,0.641,0.282,244.863,-37.679,64.053
-0.040,0.694,0.243,230.756,-32.382,57.550
-0.018,0.734,0.200,216.962,-28.908,52.740
0.001,0.760,0.169,203.977,-27.618,49.550
0.008,0.787,0.170,190.237,-22.855,47.191
0.018,0.812,0.103,178.084,-19.366,44.863
0.033,0.821,0.114,166.588,-17.351,44.038
0.057,0.829,0.073,155.649,-15.267,44.084
0.042,0.836,0.081,145.420,-14.435,43.901
0.078,0.844,0.047,135.038,-14.969,43.267
0.086,0.857,0.047,124.573,-16.947,42.947
0.101,0.874,0.045,114.550,-21.824,42.176
0.117,0.883,0.030,105.504,-25.550,40.779
0.121,0.893,0.018,97.847,-28.008,37.832
0.142,0.889,-0.005,91.992,-31.580,35.481
0.152,0.898,-0.010,85.489,-33.634,32.656
0.164,0.909,-0.034,77.855,-31.954,29.198
0.177,0.915,-0.061,71.542,-27.298,25.771
0.195,0.905,-0.072,64.076,-18.687,21.992
0.184,0.927,-0.068,56.015,-10.382,17.252
0.183,0.928,-0.062,48.015,-5.588,12.710
0.180,0.935,-0.060,40.947,-3.565,8.405
0.187,0.944,-0.072,34.794,-2.191,4.053
0.174,0.943,-0.059,30.435,0.321,0.733
0.167,0.949,-0.055,27.389,4.038,-2.550
0.152,0.945,-0.044,23.702,8.695,-5.885
0.143,0.961,-0.031,19.389,11.031,-9.130
0.126,0.964,-0.018,15.389,11.282,-11.382
0.117,0.968,-0.011,11.977,9.840,-12.908
0.091,0.975,0.000,8.168,7.618,-13.885
0.094,0.985,0.006,5.542,6.885,-14.053
0.075,0.988,0.015,3.534,8.298,-13.527
0.067,0.993,0.033,2.244,7.832,-12.641
0.064,1.001,0.037,0.939,6.595,-11.069
0.056,0.998,0.043,0.122,6.137,-9.641
0.056,0.999,0.055,-0.031,6.321,-7.542
0.053,1.001,0.063,1.008,4.634,-5.061
0.048,0.997,0.076,2.038,2.931,-2.496
0.046,1.000,0.078,2.519,1.153,-1.099
0.057,1.009,0.064,3.031,-0.321,0.252
0.068,0.998,0.067,2.969,0.611,1.504
0.071,0.988,0.060,2.588,2.557,2.069
0.073,1.007,0.067,2.008,2.840,2.626
0.075,1.001,0.061,1.611,0.115,3.053
0.080,0.992,0.065,1.305,-0.664,3.061
0.085,0.991,0.067,1.145,2.466,2.107
0.086,0.982,0.067,1.840,4.664,1.534
0.079,0.988,0.082,2.977,4.664,1.244
0.082,0.980,0.076,4.168,5.321,1.282
0.073,0.991,0.075,5.221,5.534,1.397
0.079,0.990,0.083,5.931,3.679,2.244
0.082,0.990,0.081,6.985,0.260,3.420
0.090,0.990,0.074,7.695,-1.832,4.046
0.100,0.987,0.059,8.420,-1.908,4.870
0.104,0.986,0.051,8.740,-1.053,5.168
0.100,0.993,0.043,8.183,-1.198,4.802
0.109,0.990,0.023,6.908,-2.473,4.885
0.115,0.983,0.027,4.580,-1.382,4.214
0.108,0.990,0.023,2.580,0.176,2.740
0.120,0.989,0.030,1.237,1.160,1.817
0.115,0.982,0.023,0.328,3.198,1.389
0.110,0.983,0.038,-0.458,6.191,0.305
0.103,0.978,0.045,-1.168,7.206,-0.580
0.103,0.982,0.053,-1.252,6.374,-1.229
0.105,0.982,0.046,-1.321,4.672,-1.458
0.107,0.986,0.049,-0.634,3.221,-1.168
0.104,0.988,0.049,-0.206,3.229,-0.779
0.095,0.989,0.055,-0.641,2.985,-0.809
0.097,0.989,0.044,-1.321,1.313,-0.710
0.103,0.990,0.063,-2.176,-0.550,-0.771
0.096,0.989,0.052,-2.817,-1.771,-1.115
0.095,0.988,0.052,-2.824,-1.282,-1.595
0.098,1.000,0.042,-2.229,1.122,-1.664
0.100,0.996,0.049,-0.595,5.885,-1.779
0.099,0.991,0.058,0.511,8.267,-1.656
0.087,0.988,0.072,0.427,8.550,-1.473
0.078,0.991,0.072,-0.649,6.656,-2.191
0.080,0.990,0.071,-1.756,4.137,-2.443
0.083,0.993,0.077,-2.389,4.229,-2.473
0.084,0.999,0.072,-2.031,3.977,-2.344
0.077,1.007,0.075,-1.336,3.435,-1.267
0.078,1.002,0.068,0.107,3.107,-0.458
0.082,1.003,0.067,1.534,1.840,0.244

0.230,0.841,-0.833,-40.145,-119.489,-24.863
0.227,0.810,-1.078,-77.901,-134.466,-36.939
0.232,0.815,-1.333,-146.649,-99.511,-54.802
0.283,0.735,-1.586,-248.496,-15.160,-70.206
0.208,0.590,-1.255,-250.137,82.969,-83.275
0.167,0.435,-1.235,-250.137,181.046,-90.939
-0.023,0.006,-0.831,-250.137,249.626,-104.183
-0.108,-0.132,-0.331,-250.137,250.130,-123.947
-0.285,-0.332,0.230,-250.137,250.130,-136.176
-0.436,-0.353,0.616,-250.137,250.130,-142.099
-0.530,-0.266,1.088,-250.137,218.916,-138.702
-0.622,-0.164,1.577,-250.137,131.595,-127.450
-0.595,-0.059,1.944,-250.137,87.115,-113.069
-0.687,0.007,2.000,-250.137,59.084,-92.198
-0.711,0.080,2.000,-224.641,24.756,-67.672
-0.727,0.080,2.000,-121.710,1.206,-41.397
-0.720,0.086,2.000,-45.252,-17.000,-16.802
-0.713,0.115,2.000,21.725,-38.015,9.481
-0.630,0.154,2.000,72.901,-54.420,33.466
-0.539,0.194,2.000,105.145,-63.641,50.893
-0.464,0.193,1.855,129.076,-67.137,61.992
-0.384,0.194,1.654,147.908,-66.366,68.679
-0.323,0.200,1.491,162.504,-63.656,71.588
-0.266,0.222,1.336,174.443,-60.954,73.038
-0.219,0.254,1.199,186.878,-57.504,73.595
-0.174,0.282,1.068,200.939,-53.191,73.763
-0.147,0.298,0.937,217.130,-48.893,73.504
-0.143,0.310,0.845,230.076,-47.779,72.939
-0.135,0.345,0.746,241.145,-48.840,72.565
-0.126,0.371,0.673,249.794,-50.191,72.649
-0.101,0.406,0.573,250.130,-52.672,73.053
-0.092,0.438,0.492,250.130,-54.802,71.473
-0.079,0.484,0.425,250.130,-55.718,68.939
-0.048,0.546,0.372,250.130,-56.115,65.649
-0.030,0.604,0.319,250.130,-56.359,61.214
-0.020,0.654,0.292,240.305,-57.038,55.588
0.002,0.702,0.223,227.107,-55.397,49.115
0.034,0.754,0.161,212.160,-49.237,42.038
0.050,0.793,0.116,197.267,-42.794,36.687
0.048,0.805,0.116,181.931,-33.046,33.466
0.057,0.827,0.095,166.802,-23.878,30.664
0.058,0.848,0.081,151.611,-16.214,28.313
0.078,0.872,0.052,135.863,-10.924,27.260
0.083,0.883,0.046,123.969,-8.168,28.351
0.093,0.899,0.031,111.855,-5.725,30.527
0.113,0.897,0.022,102.183,-1.977,32.305
0.118,0.894,0.029,94.672,-1.870,32.939
0.125,0.902,0.027,86.679,-3.344,33.519
0.129,0.904,0.027,77.977,-6.550,33.313
0.150,0.910,0.030,68.573,-8.931,32.298
0.157,0.915,0.029,60.427,-7.466,29.977
0.173,0.920,0.042,54.687,-5.328,26.954
0.174,0.922,0.053,50.351,-3.580,24.443
0.175,0.924,0.057,47.893,-2.817,21.618
0.168,0.922,0.071,46.740,-3.527,18.855
0.175,0.932,0.073,47.664,-3.878,16.809
0.183,0.928,0.068,49.191,-0.802,16.191
0.184,0.927,0.063,50.786,2.824,15.252
0.181,0.934,0.054,52.092,4.412,13.855
0.190,0.932,0.056,53.038,5.511,11.519
0.181,0.927,0.054,51.824,6.763,7.565
0.178,0.940,0.068,48.939,5.840,3.611
0.163,0.952,0.070,44.374,0.015,-0.107
0.151,0.955,0.066,40.450,-8.756,-3.382
0.153,0.959,0.044,36.977,-15.733,-5.366
0.156,0.972,0.024,34.473,-17.191,-6.794
0.142,0.973,-0.005,32.366,-12.481,-7.534
0.153,0.990,-0.008,30.191,-5.198,-7.740
0.153,0.992,-0.013,27.725,2.237,-7.015
0.139,0.996,0.001,24.351,8.397,-5.771
0.124,0.994,-0.010,20.656,8.855,-5.099
0.124,0.997,-0.005,16.992,4.962,-4.427
0.122,0.987,-0.026,13.832,0.809,-3.916
0.125,0.990,-0.034,10.992,-0.557,-3.954
0.135,0.988,-0.035,7.412,1.809,-4.466
0.121,0.992,-0.024,3.641,5.069,-5.053
0.121,0.995,-0.018,-0.786,5.878,-5.748
0.118,0.994,-0.011,-5.046,5.794,-5.863
0.114,0.998,-0.001,-8.313,7.290,-5.939
0.113,0.996,0.010,-10.580,8.794,-5.924
0.109,0.995,0.029,-12.000,9.611,-5.244
0.106,0.995,0.038,-12.916,9.450,-4.176
0.111,0.996,0.049,-12.771,7.802,-3.489
0.112,0.991,0.056,-11.603,6.221,-2.473
0.111,0.984,0.070,-10.198,5.420,-1.550
0.116,0.988,0.070,-8.664,5.282,-0.489
0.119,0.987,0.080,-6.374,5.550,0.458
0.119,0.980,0.090,-3.656,3.649,1.336
0.125,0.978,0.085,-1.298,2.229,1.427
0.134,0.971,0.086,1.229,1.847,1.122
0.138,0.970,0.081,4.038,2.298,1.076
0.134,0.988,0.080,6.153,2.336,1.099
0.134,0.976,0.066,7.023,1.939,1.031
0.125,0.983,0.060,7.191,0.679,0.664
0.137,0.981,0.058,6.099,0.473,0.496
0.137,0.978,0.050,4.855,0.786,-0.137
0.142,0.989,0.043,4.321,2.443,-1.069
0.135,0.978,0.037,4.656,3.366,-1.840
0.140,0.974,0.055,5.618,5.023,-2.611
0.136,0.973,0.049,6.786,6.267,-3.458
0.128,0.983,0.058,8.122,5.221,-4.061
0.122,0.985,0.054,8.992,2.977,-4.542
0.124,0.985,0.047,9.664,-0.115,-4.344
0.127,0.985,0.050,9.855,-1.824,-4.504
0.118,0.985,0.041,9.412,-3.023,-3.954
0.123,0.986,0.034,6.947,-3.931,-3.702
0.116,0.989,0.040,2.962,-5.908,-3.779
0.122,0.989,0.018,-0.450,-7.725,-4.023
0.119,0.996,0.002,-2.954,-7.511,-3.878
0.125,0.997,-0.006,-5.344,-5.137,-3.443
0.121,1.001,-0.004,-6.313,-1.389,-3.137
0.121,0.991,-0.007,-6.840,1.817,-2.443
0.124,1.002,0.004,-6.679,4.763,-1.435
0.111,0.994,0.020,-6.695,6.145,-1.008
0.112,0.982,0.035,-6.672,7.374,-1.061
0.098,0.987,0.044,-6.901,6.015,-1.000
0.102,0.987,0.048,-6.336,2.740,-0.885
0.105,0.982,0.054,-5.618,1.397,-0.221
0.115,0.986,0.050,-4.618,0.969,0.115

0.091,0.894,-0.715,-92.260,-118.092,-13.901
0.144,0.892,-0.875,-130.756,-116.870,-10.977
0.131,0.868,-0.914,-178.618,-108.939,-4.924
0.113,0.660,-0.978,-239.809,-89.489,3.939
0.337,0.784,-0.922,-250.137,-14.076,4.092
0.278,0.429,-0.736,-250.137,103.496,-5.519
0.169,0.158,-0.460,-250.137,192.939,-27.885
0.110,-0.021,-0.210,-250.137,250.130,-57.198
0.052,-0.262,0.051,-250.137,250.130,-87.527
-0.107,-0.357,0.478,-250.137,250.130,-117.802
-0.326,-0.541,0.844,-250.137,250.130,-144.794
-0.646,-0.628,1.448,-250.137,250.130,-166.847
-0.834,-0.575,1.896,-250.137,241.244,-173.298
-0.919,-0.368,2.000,-250.137,144.511,-165.252
-0.932,-0.177,2.000,-250.137,69.931,-143.130
-0.945,0.015,2.000,-193.771,6.557,-109.748
-0.921,0.077,2.000,-71.679,-36.832,-69.389
-0.893,0.087,2.000,35.260,-65.023,-28.389
-0.836,0.072,2.000,116.198,-83.466,7.634
-0.726,0.069,2.000,168.191,-94.221,36.939
-0.605,0.064,1.911,198.817,-87.221,59.695
-0.491,0.108,1.641,215.489,-67.458,76.580
-0.415,0.144,1.435,220.649,-46.275,87.969
-0.373,0.183,1.267,219.855,-34.397,92.519
-0.337,0.220,1.150,218.634,-32.641,93.366
-0.285,0.252,1.015,219.649,-33.565,92.260
-0.243,0.274,0.929,222.122,-36.153,91.229
-0.196,0.301,0.839,226.267,-39.954,90.382
-0.156,0.310,0.739,232.756,-40.695,90.420
-0.129,0.333,0.671,239.687,-37.954,90.290
-0.109,0.343,0.610,246.153,-35.885,90.527
-0.089,0.370,0.533,250.130,-36.366,90.122
-0.067,0.416,0.472,250.130,-37.069,88.664
-0.037,0.454,0.421,250.130,-37.427,85.023
-0.038,0.515,0.377,250.130,-40.557,79.031
-0.012,0.583,0.304,247.641,-45.931,71.618
0.031,0.637,0.255,238.435,-46.763,64.290
0.038,0.696,0.213,227.573,-44.634,56.092
0.044,0.733,0.190,215.038,-41.534,48.176
0.064,0.770,0.137,200.435,-36.176,40.641
0.079,0.810,0.124,181.893,-25.420,33.389
0.081,0.845,0.106,166.595,-15.191,30.023
0.098,0.854,0.082,153.183,-6.969,29.137
0.086,0.846,0.069,141.214,-2.168,29.763
0.088,0.861,0.047,131.252,-2.000,30.756
0.099,0.867,0.047,122.366,-2.939,30.679
0.121,0.873,0.022,112.412,-1.603,30.344
0.136,0.871,0.019,105.542,-1.069,29.573
0.141,0.877,0.018,98.725,-1.611,28.328
0.147,0.881,0.020,90.603,-3.053,24.893
0.146,0.900,0.026,82.641,-3.824,20.618
0.136,0.905,0.015,76.382,-3.420,15.954
0.125,0.917,0.013,71.992,-3.588,12.595
0.127,0.920,0.015,68.107,-4.168,10.420
0.119,0.937,0.017,63.435,-5.069,8.977
0.120,0.942,0.012,59.679,-6.252,7.282
0.113,0.942,-0.001,56.885,-5.183,5.450
0.112,0.944,0.003,53.313,-2.794,3.947
0.094,0.953,0.009,49.527,-3.496,1.878
0.093,0.962,0.000,46.290,-4.649,0.458
0.091,0.952,-0.005,43.221,-3.878,-0.244
0.094,0.973,-0.019,40.015,-2.313,-0.504
0.086,0.983,-0.021,37.183,0.382,-0.252
0.082,0.987,-0.011,34.130,1.191,0.595
0.087,0.989,-0.013,31.244,3.603,2.260
0.089,0.992,-0.008,28.802,5.412,3.618
0.081,0.981,-0.006,26.802,5.924,3.702
0.072,0.979,-0.005,24.557,1.290,2.809
0.073,0.977,0.006,21.992,-3.099,1.710
0.085,0.986,-0.015,19.855,-4.069,1.038
0.083,0.991,-0.013,17.786,-1.321,1.137
0.080,0.995,-0.006,15.328,2.122,1.397
0.085,1.002,0.009,12.786,2.023,2.397
0.083,1.000,0.009,10.733,1.779,3.702
0.088,0.996,0.004,9.550,1.641,4.405
0.095,0.999,0.012,9.214,0.557,5.229
0.100,0.991,0.001,9.221,-1.664,5.504
0.114,0.993,-0.006,10.053,-2.847,5.427
0.121,0.985,-0.023,11.046,-2.153,4.611
0.122,0.975,-0.036,10.267,0.015,3.237
0.117,0.972,-0.027,8.420,2.374,1.847
0.122,0.969,-0.018,5.687,5.672,0.427
0.115,0.978,-0.024,2.954,7.618,-0.840
0.109,0.977,-0.020,0.863,5.763,-1.573
0.099,0.985,-0.002,-0.481,4.221,-1.405
0.095,0.980,0.004,-0.618,3.252,-1.015
0.101,0.981,-0.006,0.634,1.412,-0.145
0.099,0.983,-0.011,1.855,0.649,0.397
0.106,0.994,-0.017,2.603,1.092,1.305
0.109,0.987,-0.012,2.252,2.328,1.550
0.111,1.001,-0.010,0.313,2.802,1.611
0.118,1.001,-0.013,-1.870,1.786,2.290
0.118,1.003,-0.007,-4.305,1.580,2.985
0.124,1.004,0.001,-7.092,3.137,2.634
0.117,0.991,0.010,-8.763,3.405,1.702
0.131,0.994,0.018,-9.405,2.298,0.832
0.131,0.989,0.023,-8.878,3.061,0.237
0.133,0.985,0.026,-7.702,5.122,-0.992
0.126,0.983,0.032,-6.634,6.840,-2.565
0.125,0.989,0.038,-5.573,7.809,-3.527
0.107,0.988,0.051,-3.969,6.504,-4.305
0.112,0.994,0.043,-2.771,5.275,-4.725
0.096,0.994,0.041,-1.840,4.863,-4.885
0.091,1.001,0.044,-1.053,4.893,-4.473
0.096,1.000,0.046,-0.817,5.458,-3.656
0.090,0.999,0.045,-0.985,6.260,-3.405
0.090,1.003,0.044,-0.748,6.473,-3.389
0.101,1.005,0.036,0.099,7.336,-3.748
0.097,0.999,0.038,1.656,7.626,-3.725
0.086,0.993,0.049,3.321,6.641,-3.473
0.073,0.993,0.055,4.534,4.611,-3.382
0.084,1.004,0.043,5.664,1.824,-2.954
0.078,1.003,0.033,6.511,-0.122,-2.160
0.089,0.992,0.021,6.687,-0.359,-0.779
0.085,1.002,0.017,5.863,-0.305,-0.008
0.086,1.010,0.006,4.542,-0.344,0.679
0.090,0.995,0.005,3.267,-0.588,1.160
0.086,0.998,-0.004,2.214,-0.374,1.557
0.088,0.989,-0.005,1.573,0.435,1.550

-0.592,-0.249,1.092,-250.137,250.130,-186.191
-0.790,-0.234,1.485,-250.137,250.130,-191.718
-0.902,-0.154,1.932,-250.137,131.840,-178.901
-0.920,0.008,2.000,-250.137,41.985,-151.412
-0.884,0.133,2.000,-233.229,-8.618,-115.679
-0.865,0.174,2.000,-113.305,-34.794,-74.664
-0.862,0.176,2.000,-12.786,-48.611,-37.221
-0.845,0.143,2.000,69.557,-53.695,-1.168
-0.796,0.135,2.000,125.740,-55.244,30.641
-0.716,0.147,2.000,157.939,-54.374,54.878
-0.618,0.156,1.814,180.916,-46.695,75.397
-0.554,0.174,1.624,199.504,-38.084,93.214
-0.480,0.177,1.440,213.809,-35.977,105.053
-0.440,0.198,1.305,223.435,-41.847,110.023
-0.369,0.221,1.143,231.740,-51.229,112.481
-0.316,0.239,1.007,238.534,-62.832,113.191
-0.260,0.263,0.887,243.527,-71.168,111.702
-0.196,0.282,0.769,248.328,-72.511,109.695
-0.143,0.309,0.674,250.130,-69.496,108.351
-0.110,0.329,0.614,250.130,-63.382,107.237
-0.094,0.349,0.550,250.130,-55.863,104.733
-0.087,0.394,0.477,250.130,-54.656,100.634
-0.060,0.446,0.425,250.130,-55.718,95.550
-0.039,0.486,0.361,250.130,-55.954,89.282
-0.030,0.553,0.321,250.130,-57.504,82.053
-0.004,0.615,0.259,250.130,-58.611,74.061
0.010,0.657,0.219,250.130,-60.038,65.237
0.012,0.705,0.169,243.748,-61.420,56.015
0.028,0.748,0.111,231.374,-63.344,48.824
0.051,0.776,0.053,217.954,-60.214,42.901
0.079,0.791,-0.001,204.084,-52.214,39.664
0.091,0.817,-0.035,191.519,-45.885,37.023
0.088,0.847,-0.064,173.252,-37.046,34.275
0.112,0.854,-0.101,155.573,-30.359,32.229
0.132,0.864,-0.122,140.382,-24.366,32.107
0.152,0.875,-0.146,126.924,-19.992,32.069
0.147,0.898,-0.131,114.214,-18.580,31.511
0.147,0.905,-0.126,102.046,-19.458,30.351
0.152,0.915,-0.159,90.237,-21.656,29.282
0.164,0.905,-0.117,78.832,-21.969,27.542
0.167,0.922,-0.139,66.611,-20.031,24.924
0.174,0.928,-0.120,55.344,-16.550,22.374
0.179,0.940,-0.125,46.634,-13.099,19.779
0.174,0.938,-0.122,40.198,-13.000,17.641
0.166,0.947,-0.122,34.176,-11.458,14.832
0.172,0.938,-0.121,29.618,-4.954,13.214
0.186,0.945,-0.105,25.183,3.679,11.809
0.172,0.957,-0.098,21.634,5.443,9.931
0.160,0.954,-0.067,18.099,3.748,8.260
0.163,0.958,-0.076,16.359,2.580,6.611
0.161,0.952,-0.067,15.809,4.397,4.099
0.157,0.957,-0.051,15.000,6.260,2.237
0.150,0.965,-0.043,13.969,5.450,0.908
0.145,0.974,-0.031,12.511,4.992,0.099
0.144,0.980,-0.039,10.664,4.397,-0.405
0.141,0.992,-0.042,9.092,2.908,-0.779
0.144,0.986,-0.024,6.702,4.588,-0.626
0.142,0.991,-0.023,4.244,7.359,-0.405
0.148,0.995,-0.021,1.924,8.779,0.282
0.142,0.997,0.005,0.084,8.313,0.740
0.148,0.993,-0.000,-0.626,6.924,1.099
0.141,0.992,0.009,-0.649,5.374,1.672
0.139,0.983,0.015,-0.015,4.099,1.740
0.150,0.993,0.011,1.435,2.985,2.237
0.153,0.982,0.013,3.611,2.534,2.763
0.150,0.982,0.007,5.550,1.985,3.267
0.151,0.979,0.020,6.000,1.160,3.145
0.152,0.979,0.018,5.733,0.664,2.511
0.154,0.986,0.006,5.786,0.641,1.664
0.153,0.990,0.011,5.954,1.107,0.878
0.153,0.985,-0.005,5.763,1.847,-0.069
0.152,0.990,0.001,5.733,2.863,-0.519
0.151,0.991,0.002,6.221,2.824,-0.573
0.152,0.988,-0.019,7.267,3.130,-0.527
0.147,0.982,-0.013,8.137,3.313,-0.359
0.154,0.989,-0.006,7.863,2.794,0.183
0.146,0.982,-0.010,6.763,2.031,0.534
0.159,0.990,-0.022,5.328,1.756,1.176
0.158,0.991,-0.023,4.290,1.916,1.023
0.166,0.979,-0.023,3.267,3.000,0.687
0.163,0.985,-0.009,1.527,3.130,0.191
0.167,0.985,-0.016,0.427,1.542,-0.023
0.159,0.981,-0.008,0.252,-0.595,-0.855
0.162,0.984,-0.015,0.504,-0.450,-1.756
0.154,0.986,-0.017,1.481,0.527,-2.679
0.151,0.989,-0.022,1.977,0.595,-2.603
0.142,0.998,-0.026,2.031,1.702,-2.092
0.140,0.986,-0.026,1.557,3.771,-1.863
0.142,0.992,-0.021,-0.107,4.809,-1.130
0.135,0.991,-0.014,-2.160,4.084,-0.137
0.140,0.999,-0.004,-4.206,2.550,0.687
0.140,0.995,-0.011,-4.626,2.466,1.252
0.146,0.987,-0.015,-3.557,2.687,1.252
0.151,0.982,-0.003,-2.015,2.573,1.107
0.151,0.982,-0.001,-0.519,2.260,0.740
0.149,0.980,0.006,0.435,2.229,-0.282
0.152,0.988,-0.003,0.198,3.450,-1.328
0.143,0.994,0.011,-0.702,3.412,-2.374
0.140,0.998,-0.006,-1.298,1.756,-2.267
0.138,1.000,-0.002,-2.084,0.084,-1.916
0.138,1.000,-0.009,-2.733,-0.863,-1.435
0.139,0.999,-0.003,-2.969,-0.969,-0.603
0.143,1.001,-0.011,-3.313,-0.580,-0.061
0.143,0.995,-0.017,-2.687,1.603,0.794
0.142,0.986,-0.007,-1.954,2.038,1.023
0.146,0.983,-0.012,-1.748,2.557,1.366
0.143,0.992,-0.001,-1.863,1.115,1.573
0.144,0.988,0.003,-2.099,-1.183,1.679
0.162,0.984,-0.010,-2.351,-0.931,2.000
0.157,0.985,-0.008,-2.061,1.191,1.573
0.154,0.987,-0.000,-1.901,3.130,0.916
0.153,0.988,0.005,-1.153,3.015,0.977
0.151,0.983,0.018,-0.519,2.977,1.015
0.159,0.985,0.010,-0.206,3.191,0.954
0.154,0.989,0.014,-0.084,1.710,0.069
0.163,0.980,-0.001,0.061,-0.191,-0.649
0.167,0.989,0.001,0.389,-1.099,-1.206
0.163,0.990,-0.017,0.450,-0.344,-1.756
0.155,0.986,-0.016,0.420,1.061,-2.160

0.200,0.928,-0.768,-132.298,-162.977,0.809
0.236,0.917,-0.935,-187.710,-125.832,3.351
0.343,0.865,-1.162,-250.137,-35.626,7.763
0.267,0.625,-1.095,-250.137,79.183,5.252
0.211,0.400,-0.915,-250.137,131.718,-5.748
0.205,0.194,-0.715,-250.137,166.847,-25.573
0.232,-0.012,-0.447,-250.137,214.076,-49.603
0.231,-0.127,-0.152,-250.137,250.130,-73.725
0.160,-0.170,0.191,-250.137,250.130,-103.916
0.004,-0.206,0.542,-250.137,250.130,-138.008
-0.199,-0.271,0.885,-250.137,250.130,-165.718
-0.319,-0.217,1.243,-250.137,203.527,-181.885
-0.384,-0.127,1.574,-250.137,155.275,-187.992
-0.501,-0.058,1.917,-250.137,121.542,-185.053
-0.623,-0.036,2.000,-250.137,77.656,-172.008
-0.718,-0.017,2.000,-235.214,25.534,-146.687
-0.739,0.021,2.000,-135.718,-4.779,-112.962
-0.763,0.025,2.000,-51.687,-16.122,-77.824
-0.787,0.029,2.000,28.878,-32.366,-36.534
-0.737,0.062,2.000,90.176,-47.588,2.542
-0.641,0.073,2.000,132.748,-52.405,35.763
-0.541,0.095,1.778,160.023,-49.076,60.000
-0.460,0.118,1.591,178.802,-45.496,75.122
-0.399,0.139,1.425,196.260,-45.649,86.038
-0.335,0.154,1.283,210.580,-49.313,91.809
-0.280,0.183,1.142,226.168,-55.840,95.115
-0.232,0.195,1.006,239.924,-62.092,95.168
-0.202,0.229,0.872,250.130,-65.618,93.557
-0.175,0.251,0.755,250.130,-67.160,91.695
-0.145,0.297,0.672,250.130,-66.779,89.939
-0.114,0.344,0.585,250.130,-62.160,88.603
-0.095,0.395,0.498,250.130,-53.641,87.214
-0.080,0.431,0.445,250.130,-45.939,85.649
-0.071,0.483,0.397,250.130,-39.718,83.817
-0.050,0.539,0.357,250.130,-34.656,80.534
-0.045,0.577,0.319,250.130,-34.191,75.985
-0.021,0.624,0.275,250.130,-34.282,70.168
0.010,0.662,0.226,239.794,-31.687,62.924
0.033,0.696,0.182,225.496,-27.076,55.282
0.044,0.729,0.158,209.878,-23.069,49.069
0.085,0.761,0.126,193.893,-22.695,45.244
0.083,0.781,0.085,177.382,-24.328,42.008
0.107,0.808,0.062,162.817,-27.321,40.229
0.146,0.827,0.018,149.588,-25.802,39.908
0.160,0.850,0.000,137.176,-24.565,40.076
0.171,0.868,-0.013,122.504,-24.626,39.824
0.181,0.873,-0.007,109.832,-24.725,38.725
0.200,0.878,-0.022,96.336,-23.779,36.725
0.204,0.886,0.000,83.496,-21.954,33.824
0.214,0.908,-0.014,70.916,-20.817,30.542
0.235,0.900,-0.004,59.695,-16.458,27.740
0.234,0.903,-0.004,50.412,-10.756,24.840
0.230,0.918,0.022,43.893,-2.580,21.672
0.236,0.911,0.028,40.603,3.336,18.458
0.220,0.906,0.042,38.275,6.389,16.084
0.214,0.900,0.055,35.908,4.595,13.435
0.208,0.904,0.069,32.618,-0.519,10.031
0.214,0.915,0.085,29.000,-2.740,5.947
0.203,0.922,0.075,25.519,-3.481,1.885
0.198,0.933,0.087,22.893,-4.611,-1.313
0.187,0.935,0.086,21.313,-4.824,-4.145
0.187,0.950,0.076,19.931,-2.893,-6.588
0.178,0.954,0.083,19.061,1.702,-8.481
0.171,0.972,0.082,18.557,7.725,-10.137
0.140,0.959,0.092,17.695,12.893,-11.382
0.122,0.973,0.118,17.176,15.809,-12.427
0.109,0.989,0.122,16.771,17.802,-11.794
0.100,0.995,0.133,17.183,16.634,-8.847
0.100,0.994,0.148,18.061,14.947,-5.573
0.101,0.995,0.144,18.595,13.198,-1.916
0.094,0.993,0.151,18.237,9.962,1.656
0.093,0.993,0.147,17.779,3.954,4.137
0.101,0.993,0.132,17.611,-0.450,5.901
0.112,0.989,0.134,17.679,-3.313,7.237
0.118,0.990,0.122,17.817,-5.229,8.969
0.125,0.979,0.114,17.672,-5.298,9.977
0.134,0.981,0.100,17.397,-3.649,10.496
0.140,0.983,0.110,17.008,-0.595,11.282
0.150,0.980,0.104,16.435,1.496,12.275
0.157,0.985,0.100,16.168,2.198,12.916
0.172,0.983,0.098,16.359,1.969,13.153
0.187,0.982,0.097,16.847,1.382,12.901
0.191,0.967,0.083,17.275,-0.550,12.183
0.214,0.965,0.073,17.718,-2.809,10.748
0.223,0.966,0.062,17.198,-4.641,8.595
0.236,0.952,0.039,16.336,-5.244,6.053
0.231,0.951,0.040,14.695,-3.130,2.695
0.238,0.947,0.026,12.870,1.588,-1.099
0.225,0.953,0.031,9.924,8.168,-5.076
0.207,0.955,0.035,6.649,10.550,-7.672
0.193,0.964,0.042,3.519,8.618,-8.771
0.190,0.970,0.037,1.366,7.061,-8.382
0.186,0.975,0.049,0.153,7.130,-7.565
0.177,0.978,0.054,-1.092,6.748,-6.382
0.175,0.979,0.054,-1.740,5.359,-5.481
0.162,0.971,0.060,-2.023,3.863,-4.641
0.164,0.980,0.054,-2.038,4.130,-4.595
0.163,0.969,0.059,-1.893,4.954,-4.244
0.158,0.982,0.072,-1.412,5.641,-4.214
0.151,0.979,0.084,-0.603,5.122,-4.046
0.140,0.977,0.081,0.053,3.099,-3.794
0.149,0.986,0.080,0.626,1.992,-2.908
0.147,0.986,0.088,1.038,1.412,-2.634
0.146,0.979,0.094,1.550,0.435,-2.412
0.148,0.978,0.077,2.763,-0.847,-2.260
0.150,0.981,0.073,3.702,-1.466,-1.878
0.152,0.990,0.077,4.008,-1.137,-1.649
0.143,0.991,0.063,3.809,-1.992,-1.466
0.147,0.986,0.056,2.733,-3.847,-1.672
0.145,0.987,0.041,1.412,-5.595,-1.763
0.152,0.990,0.042,-0.496,-5.214,-2.099
0.161,0.992,0.031,-2.351,-2.756,-2.191
0.156,0.980,0.033,-4.130,0.748,-2.420
0.155,0.982,0.044,-6.244,2.031,-2.802
0.141,0.980,0.047,-7.672,2.206,-3.099
0.145,0.982,0.062,-8.145,3.176,-3.412
0.143,0.977,0.061,-7.336,5.176,-3.313
0.142,0.977,0.061,-6.595,6.939,-2.611
0.137,0.988,0.073,-5.595,8.366,-1.733

0.236,0.791,-0.703,-83.840,-144.527,-23.634
0.326,0.838,-0.927,-160.916,-98.328,-30.198
0.281,0.754,-1.065,-250.137,-26.489,-36.634
0.244,0.604,-1.132,-250.137,67.359,-46.588
0.158,0.303,-0.996,-250.137,141.702,-61.580
0.048,0.148,-0.742,-250.137,191.885,-77.855
0.022,-0.042,-0.463,-250.137,242.595,-96.992
0.086,-0.177,-0.227,-250.137,250.130,-113.947
0.021,-0.366,0.080,-250.137,250.130,-134.618
-0.253,-0.630,0.427,-250.137,250.130,-163.176
-0.615,-0.793,1.007,-250.137,250.130,-197.954
-0.947,-0.757,1.702,-250.137,250.130,-218.092
-0.849,-0.424,2.000,-250.137,183.107,-216.893
-0.830,-0.250,2.000,-250.137,141.954,-197.412
-0.930,-0.095,2.000,-250.137,109.366,-163.473
-1.092,0.003,2.000,-96.718,56.221,-120.160
-1.200,0.012,2.000,11.840,9.527,-82.565
-1.218,0.032,2.000,104.626,-39.740,-37.931
-1.129,0.019,2.000,164.214,-82.328,4.153
-0.980,-0.013,2.000,199.756,-103.924,40.168
-0.781,0.034,1.831,223.580,-97.618,70.229
-0.662,0.067,1.569,235.893,-85.229,90.718
-0.577,0.095,1.370,242.847,-73.374,102.756
-0.507,0.156,1.205,249.214,-64.962,111.053
-0.440,0.203,1.087,250.130,-60.763,117.389
-0.386,0.229,0.967,250.130,-64.947,122.405
-0.320,0.243,0.828,250.130,-71.198,127.481
-0.267,0.249,0.720,250.130,-74.672,130.260
-0.226,0.269,0.630,250.130,-75.756,131.206
-0.181,0.283,0.544,250.130,-74.344,131.206
-0.135,0.300,0.454,250.130,-72.366,129.634
-0.105,0.328,0.383,250.130,-68.916,125.374
-0.073,0.371,0.321,250.130,-70.496,117.573
-0.054,0.448,0.249,250.130,-72.916,104.603
-0.016,0.527,0.189,250.130,-74.786,89.626
0.027,0.607,0.130,250.130,-74.916,73.580
0.042,0.685,0.041,250.130,-68.397,58.252
0.035,0.717,0.044,240.191,-66.695,44.748
0.042,0.776,-0.005,221.924,-64.519,34.832
0.066,0.806,-0.024,202.649,-59.061,28.145
0.087,0.847,-0.042,183.939,-50.000,24.183
0.099,0.872,-0.062,167.099,-36.481,22.969
0.119,0.887,-0.101,151.557,-20.947,23.534
0.121,0.904,-0.098,135.947,-9.924,25.198
0.116,0.897,-0.100,121.031,-5.992,27.221
0.114,0.906,-0.112,108.137,-8.183,28.176
0.118,0.919,-0.108,95.656,-11.290,28.267
0.147,0.920,-0.125,82.809,-11.519,28.053
0.160,0.933,-0.127,71.275,-10.076,28.237
0.164,0.935,-0.124,62.206,-7.076,27.641
0.159,0.934,-0.116,53.557,-3.588,26.206
0.170,0.934,-0.104,46.504,-2.237,24.771
0.159,0.926,-0.089,41.267,-3.313,23.481
0.167,0.927,-0.081,35.733,-5.496,20.893
0.167,0.935,-0.073,31.565,-6.763,17.863
0.183,0.937,-0.092,28.817,-4.511,13.733
0.167,0.941,-0.082,27.832,-2.099,10.794
0.167,0.939,-0.075,26.931,-0.733,8.763
0.163,0.955,-0.066,26.321,0.298,6.985
0.158,0.955,-0.078,25.962,1.145,5.000
0.157,0.958,-0.080,25.145,3.565,3.977
0.156,0.972,-0.077,24.107,6.985,2.924
0.153,0.974,-0.057,21.878,9.855,2.191
0.135,0.986,-0.036,19.481,9.458,1.504
0.130,0.990,-0.026,17.229,7.328,1.298
0.125,0.996,-0.019,15.939,6.015,1.084
0.125,1.004,-0.011,15.115,2.412,1.107
0.115,0.992,-0.021,16.183,-1.183,2.611
0.115,0.992,-0.022,17.672,-2.664,4.053
0.125,0.993,-0.018,18.969,-3.267,6.229
0.122,0.998,-0.033,19.405,-2.420,7.878
0.136,0.994,-0.040,18.863,-2.351,8.595
0.147,0.999,-0.054,17.710,-3.565,8.527
0.160,0.995,-0.066,16.336,-2.153,7.947
0.157,0.991,-0.065,14.588,-0.573,7.198
0.164,0.995,-0.077,12.855,-0.160,6.565
0.164,0.983,-0.072,10.527,0.870,5.863
0.167,0.997,-0.058,7.679,1.893,4.023
0.166,0.986,-0.060,5.855,2.160,2.481
0.176,0.985,-0.075,4.863,1.031,1.802
0.172,0.979,-0.067,4.061,2.382,1.076
0.170,0.990,-0.061,3.153,3.771,-0.397
0.169,0.980,-0.067,3.015,3.916,-1.313
0.168,0.976,-0.056,3.351,4.183,-1.695
0.161,0.987,-0.053,3.359,3.595,-1.748
0.157,0.985,-0.046,3.763,3.443,-1.534
0.154,0.982,-0.051,5.076,3.244,-0.954
0.150,0.985,-0.067,6.840,2.511,-0.160
0.158,0.976,-0.062,8.130,1.565,0.420
0.152,0.977,-0.067,8.847,0.008,1.107
0.162,0.975,-0.068,8.466,-1.885,1.481
0.164,0.978,-0.082,6.374,-3.847,0.771
0.172,0.984,-0.088,3.489,-4.893,-0.519
0.169,0.982,-0.092,-0.275,-5.420,-2.718
0.173,0.992,-0.094,-4.389,-3.763,-4.824
0.169,0.994,-0.091,-7.809,-1.351,-6.992
0.159,0.993,-0.090,-10.290,1.076,-8.092
0.155,0.998,-0.092,-12.168,2.756,-8.618
0.139,1.010,-0.078,-13.053,2.733,-8.672
0.137,1.001,-0.080,-12.687,4.229,-7.832
0.129,1.002,-0.077,-10.939,6.611,-6.336
0.118,0.999,-0.055,-9.374,8.038,-4.366
0.125,0.991,-0.038,-7.870,8.603,-2.267
0.129,0.985,-0.031,-6.519,8.542,-0.626
0.128,0.987,-0.023,-5.466,6.702,0.092
0.126,0.986,-0.020,-4.473,5.176,0.290
0.130,0.988,-0.019,-3.137,4.191,0.061
0.133,0.988,-0.012,-1.695,2.076,-0.489
0.137,0.991,-0.013,-0.351,0.565,-0.969
0.132,1.000,-0.029,0.580,-0.198,-1.336
0.132,1.002,-0.028,1.092,-1.046,-1.511
0.132,1.004,-0.032,1.840,-1.099,-1.000
0.133,1.000,-0.038,2.634,-0.046,-0.511
0.138,1.000,-0.042,3.786,1.351,0.458
0.134,0.997,-0.036,4.611,1.931,1.053
0.130,0.993,-0.052,4.992,2.321,1.405
0.147,0.994,-0.049,4.992,1.992,1.718
0.145,0.981,-0.065,5.046,0.924,1.733
0.153,0.981,-0.079,5.008,-0.282,1.702

0.080,0.718,-0.963,-164.687,-90.290,-28.656
0.132,0.696,-1.139,-241.305,-38.962,-25.229
0.110,0.540,-1.231,-250.137,45.366,-23.618
0.123,0.420,-1.211,-250.137,143.649,-27.824
0.053,0.214,-0.959,-250.137,211.985,-48.779
0.084,-0.023,-0.653,-250.137,250.130,-72.847
0.159,-0.198,-0.388,-250.137,250.130,-98.046
0.112,-0.312,-0.045,-250.137,250.130,-128.099
-0.020,-0.571,0.196,-250.137,250.130,-162.924
-0.415,-0.850,0.809,-250.137,250.130,-197.076
-0.684,-0.943,1.312,-250.137,250.130,-222.969
-0.896,-0.722,1.955,-250.137,250.130,-232.756
-0.990,-0.448,2.000,-250.137,171.076,-223.573
-1.071,-0.260,2.000,-250.137,93.870,-193.611
-1.166,-0.142,2.000,-103.229,38.756,-151.008
-1.252,-0.076,2.000,23.183,-22.221,-102.191
-1.237,-0.072,2.000,110.443,-82.870,-54.267
-1.084,-0.027,2.000,159.656,-125.244,-12.702
-0.887,-0.026,1.774,181.405,-142.351,19.962
-0.725,0.017,1.429,188.191,-130.542,43.618
-0.617,0.061,1.225,184.817,-104.824,58.908
-0.547,0.107,1.087,176.603,-79.473,68.183
-0.480,0.168,1.008,165.954,-55.931,76.305
-0.413,0.217,0.945,157.046,-38.573,83.115
-0.369,0.265,0.903,153.504,-30.237,88.710
-0.332,0.290,0.875,157.847,-29.885,92.863
-0.302,0.298,0.843,168.794,-36.450,95.672
-0.271,0.309,0.803,184.015,-45.084,96.802
-0.231,0.334,0.766,201.718,-54.595,96.908
-0.199,0.343,0.706,215.649,-59.588,96.588
-0.178,0.366,0.647,227.840,-62.992,94.580
-0.164,0.401,0.581,235.718,-63.351,90.450
-0.164,0.438,0.540,237.840,-63.351,84.870
-0.168,0.472,0.520,234.855,-63.618,78.176
-0.153,0.537,0.484,225.855,-60.947,67.595
-0.141,0.600,0.444,215.450,-57.061,58.595
-0.114,0.656,0.431,203.779,-49.191,52.916
-0.127,0.691,0.433,193.038,-41.458,49.076
-0.093,0.722,0.395,182.374,-30.183,48.435
-0.086,0.752,0.371,173.771,-19.183,50.473
-0.067,0.771,0.352,166.962,-10.405,55.779
-0.046,0.782,0.337,163.153,-7.573,61.405
-0.043,0.779,0.323,158.832,-7.252,66.847
-0.029,0.779,0.314,154.573,-13.924,69.374
0.007,0.789,0.292,150.763,-20.840,70.221
0.039,0.798,0.264,147.305,-28.000,69.397
0.057,0.808,0.242,143.687,-33.435,67.076
0.088,0.814,0.218,138.809,-35.458,64.092
0.107,0.834,0.194,134.092,-35.962,59.977
0.117,0.853,0.187,129.191,-36.282,55.351
0.131,0.846,0.149,124.947,-35.901,50.351
0.130,0.841,0.122,121.023,-36.977,45.061
0.149,0.860,0.085,117.183,-37.015,39.634
0.151,0.865,0.072,112.931,-38.733,32.878
0.162,0.879,0.049,106.725,-38.733,25.771
0.160,0.896,0.016,100.321,-38.382,20.496
0.161,0.896,-0.007,93.099,-36.718,16.260
0.169,0.915,-0.031,85.847,-33.687,12.771
0.167,0.934,-0.043,78.206,-29.588,9.863
0.166,0.941,-0.053,70.496,-24.359,7.328
0.171,0.965,-0.068,61.908,-18.824,4.389
0.163,0.967,-0.070,54.115,-13.908,3.420
0.155,0.966,-0.067,45.130,-8.847,2.435
0.154,0.977,-0.061,37.649,-4.237,0.779
0.144,0.977,-0.072,31.832,-1.168,-0.069
0.137,0.964,-0.051,26.733,2.870,-0.901
0.137,0.986,-0.046,21.237,6.710,-1.626
0.131,0.989,-0.035,16.275,9.351,-1.740
0.131,0.968,-0.027,12.634,9.870,-1.313
0.118,0.981,0.000,9.908,9.489,-0.359
0.108,0.984,0.006,8.298,7.008,0.076
0.107,0.977,0.008,7.725,3.198,0.718
0.098,0.977,0.025,7.527,0.160,1.710
0.092,0.991,0.024,7.557,-1.954,2.847
0.109,0.992,0.027,8.008,-1.107,4.137
0.105,0.989,0.023,9.038,1.305,5.901
0.105,0.989,0.030,9.733,3.412,6.786
0.112,0.994,0.046,9.687,3.969,7.366
0.114,0.993,0.042,10.290,3.565,7.954
0.112,0.985,0.042,11.473,1.878,8.260
0.118,0.974,0.047,12.603,-0.351,8.626
0.123,0.987,0.042,14.412,-2.939,8.672
0.136,0.984,0.039,16.260,-4.763,9.046
0.136,0.974,0.031,18.122,-6.168,9.672
0.148,0.970,0.028,19.511,-7.290,10.130
0.151,0.967,0.017,20.481,-6.672,10.000
0.164,0.973,0.000,20.924,-3.885,9.359
0.171,0.968,-0.004,20.679,-2.206,8.267
0.175,0.982,0.004,19.000,-1.229,7.122
0.175,0.985,0.001,16.160,-2.099,5.260
0.177,0.979,-0.009,13.618,-3.504,3.275
0.177,0.990,-0.029,11.885,-3.382,1.466
0.182,0.989,-0.023,10.794,-0.908,0.458
0.173,0.982,-0.017,10.076,0.397,0.229
0.169,0.981,-0.021,9.366,-0.122,0.137
0.162,0.981,-0.023,8.916,-1.496,-0.443
0.164,0.980,-0.026,7.794,-1.656,-1.084
0.163,0.980,-0.036,6.382,-1.252,-1.725
0.161,0.986,-0.039,4.847,-0.252,-2.595
0.149,0.989,-0.038,2.939,1.260,-2.756
0.155,0.987,-0.033,1.092,3.389,-2.466
0.140,0.990,-0.022,-0.557,3.901,-1.687
0.139,0.991,-0.018,-1.832,3.878,-1.305
0.140,0.991,-0.030,-1.962,3.473,-0.916
0.149,0.996,-0.011,-1.756,3.786,-0.641
0.135,0.994,-0.010,-1.863,3.916,-0.366
0.145,0.992,-0.002,-1.817,3.557,-0.260
0.133,0.996,-0.004,-1.794,1.588,-0.366
0.135,0.991,-0.010,-1.649,0.176,-0.313
0.141,0.996,-0.009,-1.908,1.282,-0.206
0.130,0.999,-0.014,-2.511,3.298,-0.069
0.140,0.997,-0.013,-3.023,3.496,0.565
0.141,1.000,-0.008,-3.756,4.214,1.069
0.148,0.996,-0.010,-3.794,4.473,1.298
0.144,0.990,0.009,-3.893,2.985,1.702
0.152,0.987,-0.002,-3.656,1.405,1.908
0.158,0.989,0.001,-2.916,1.099,1.511
0.155,0.984,0.004,-2.244,2.519,0.618
0.158,0.983,0.002,-1.863,2.969,-0.168

0.254,0.842,-0.712,-108.634,-151.473,-26.237
0.365,0.842,-0.947,-165.748,-110.817,-33.916
0.427,0.807,-1.143,-245.237,0.298,-38.771
0.333,0.612,-1.118,-250.137,99.748,-46.366
0.221,0.376,-0.931,-250.137,157.603,-63.405
0.141,0.187,-0.729,-250.137,187.626,-85.443
0.077,0.014,-0.494,-250.137,223.137,-108.450
0.029,-0.060,-0.288,-250.137,250.130,-130.733
-0.066,-0.084,0.004,-250.137,250.130,-156.695
-0.313,-0.202,0.480,-250.137,250.130,-175.450
-0.508,-0.243,0.845,-250.137,250.130,-189.214
-0.640,-0.277,1.156,-250.137,247.954,-192.977
-0.641,-0.169,1.487,-250.137,187.618,-186.969
-0.694,-0.158,1.892,-250.137,144.756,-168.679
-0.752,-0.107,2.000,-250.137,125.023,-146.298
-0.856,-0.017,2.000,-233.679,101.481,-120.061
-0.976,0.052,2.000,-114.611,69.115,-90.046
-1.054,0.050,2.000,-1.107,23.160,-50.198
-1.046,0.081,2.000,77.481,-16.718,-10.718
-0.981,0.082,2.000,130.672,-48.489,26.260
-0.843,0.079,2.000,166.840,-69.870,59.237
-0.694,0.094,1.779,188.198,-74.519,79.954
-0.589,0.099,1.554,203.725,-74.176,93.084
-0.487,0.129,1.349,216.344,-72.137,100.588
-0.421,0.161,1.181,227.321,-70.580,104.573
-0.363,0.204,1.035,238.313,-72.221,106.061
-0.284,0.246,0.884,247.565,-75.908,107.573
-0.247,0.272,0.778,250.130,-76.901,108.168
-0.210,0.280,0.680,250.130,-77.405,107.870
-0.176,0.306,0.594,250.130,-75.206,106.527
-0.162,0.336,0.528,250.130,-73.069,103.191
-0.125,0.371,0.450,250.130,-73.237,98.763
-0.115,0.422,0.403,250.130,-72.565,93.672
-0.082,0.485,0.338,250.130,-68.855,86.573
-0.061,0.535,0.317,250.130,-64.847,79.389
-0.056,0.576,0.279,250.130,-60.359,71.870
-0.032,0.626,0.225,250.130,-56.878,64.282
-0.023,0.674,0.160,248.427,-53.458,56.458
-0.004,0.722,0.148,236.412,-50.550,48.366
-0.021,0.761,0.123,224.008,-48.863,41.466
-0.010,0.759,0.119,210.031,-47.603,36.412
0.001,0.801,0.112,194.802,-44.794,32.282
0.023,0.838,0.099,179.832,-39.191,29.244
0.035,0.858,0.075,166.580,-33.740,28.779
0.062,0.867,0.029,155.290,-27.977,29.351
0.073,0.874,0.001,145.702,-21.031,30.702
0.082,0.892,-0.015,136.855,-14.435,32.366
0.084,0.909,-0.002,127.313,-9.160,33.618
0.088,0.918,-0.002,117.832,-5.603,34.511
0.081,0.926,0.013,108.534,-4.450,35.366
0.090,0.926,0.012,99.084,-4.618,35.794
0.093,0.939,0.017,89.580,-5.931,36.053
0.108,0.946,0.015,80.695,-7.489,35.748
0.115,0.951,0.010,74.031,-8.366,35.534
0.123,0.938,0.005,69.191,-8.870,35.153
0.138,0.930,-0.006,65.916,-8.656,34.382
0.147,0.924,-0.017,64.076,-7.244,32.550
0.142,0.920,-0.007,63.061,-6.718,30.053
0.158,0.922,-0.012,61.466,-4.901,26.603
0.164,0.933,-0.000,59.656,-2.115,23.252
0.170,0.940,-0.003,57.282,-0.420,19.786
0.163,0.943,-0.012,55.031,-0.046,16.389
0.161,0.955,0.003,52.924,0.443,13.305
0.136,0.960,0.009,51.145,-0.099,10.489
0.139,0.963,0.002,49.443,-1.275,8.092
0.148,0.972,-0.006,48.565,-2.313,7.008
0.135,0.960,-0.011,48.489,-2.160,5.908
0.133,0.963,-0.012,48.519,-1.733,4.672
0.126,0.972,-0.021,48.092,-3.656,3.519
0.115,0.981,-0.025,47.565,-6.115,2.252
0.117,0.974,-0.039,47.443,-5.847,1.229
0.106,0.980,-0.052,48.168,-5.679,0.992
0.109,0.978,-0.062,48.305,-5.634,1.626
0.103,0.976,-0.066,47.557,-4.954,2.863
0.110,0.997,-0.065,45.931,-4.786,3.947
0.103,0.997,-0.065,44.198,-4.969,5.664
0.105,0.997,-0.067,42.756,-5.588,6.924
0.107,0.990,-0.080,41.588,-6.221,8.305
0.116,1.000,-0.091,40.962,-8.053,9.313
0.106,0.987,-0.110,40.489,-10.588,10.366
0.118,0.982,-0.104,39.809,-12.397,11.015
0.130,0.984,-0.105,37.908,-14.893,11.748
0.136,0.982,-0.125,35.458,-15.634,11.534
0.146,0.980,-0.137,33.878,-14.099,11.053
0.146,0.987,-0.141,32.366,-11.130,10.053
0.153,0.978,-0.155,31.115,-8.855,9.427
0.157,0.984,-0.153,29.489,-7.084,8.763
0.155,0.985,-0.174,27.634,-5.023,8.092
0.156,0.980,-0.162,25.840,-3.534,7.107
0.157,0.979,-0.167,24.313,-2.214,6.282
0.155,0.979,-0.166,22.748,-2.130,5.916
0.156,0.975,-0.169,20.634,-3.282,5.496
0.157,0.977,-0.179,18.985,-3.282,4.756
0.161,0.975,-0.170,17.160,-3.695,4.198
0.161,0.978,-0.167,15.397,-3.618,3.527
0.158,0.968,-0.178,13.328,-2.992,3.046
0.170,0.975,-0.181,11.374,-2.550,2.244
0.164,0.976,-0.172,9.198,-1.809,1.695
0.166,0.988,-0.187,7.115,-0.252,1.168
0.169,0.987,-0.187,5.252,1.679,0.786
0.167,0.987,-0.187,3.794,4.962,0.634
0.167,0.984,-0.184,2.740,7.412,1.115
0.167,0.978,-0.181,2.130,7.382,1.695
0.165,0.968,-0.180,1.313,5.443,1.611
0.166,0.970,-0.171,0.290,3.855,0.855
0.162,0.981,-0.167,-1.626,2.260,-0.069
0.164,0.981,-0.163,-3.641,0.565,-1.015
0.171,0.980,-0.153,-5.229,0.107,-1.863
0.158,0.979,-0.167,-6.588,1.489,-2.405
0.156,0.984,-0.168,-8.122,3.725,-3.046
0.163,0.991,-0.165,-9.015,5.534,-3.092
0.156,0.988,-0.155,-9.427,6.992,-3.206
0.154,0.990,-0.146,-9.733,8.687,-3.137
0.147,0.994,-0.141,-9.130,8.542,-2.924
0.144,0.991,-0.124,-8.542,7.565,-2.450
0.139,0.993,-0.126,-7.802,6.557,-2.664
0.138,0.997,-0.110,-7.313,6.107,-2.603
0.137,1.001,-0.102,-6.962,5.397,-2.611
0.138,0.996,-0.108,-6.725,4.092,-2.275

0.307,0.860,-0.704,-94.420,-181.504,-38.122
0.342,0.894,-0.959,-125.458,-156.687,-45.038
0.344,0.877,-1.218,-163.107,-82.702,-51.565
0.314,0.787,-1.385,-235.328,44.458,-58.779
0.219,0.679,-1.343,-250.137,139.053,-69.435
0.063,0.455,-1.106,-250.137,182.557,-86.092
-0.038,0.197,-0.837,-250.137,200.565,-106.611
-0.101,-0.011,-0.543,-250.137,215.260,-120.802
-0.155,-0.050,-0.162,-250.137,224.962,-131.038
-0.198,-0.065,0.198,-250.137,219.168,-137.374
-0.245,-0.114,0.510,-250.137,213.733,-139.153
-0.306,-0.160,0.747,-250.137,219.763,-143.504
-0.478,-0.173,1.190,-250.137,204.481,-149.710
-0.553,-0.102,1.546,-250.137,167.183,-152.420
-0.644,-0.040,1.866,-250.137,133.244,-149.977
-0.731,0.022,2.000,-250.137,101.221,-138.244
-0.862,0.080,2.000,-214.878,67.733,-115.794
-0.924,0.119,2.000,-119.344,37.000,-83.603
-0.952,0.159,2.000,-38.756,8.321,-46.420
-0.969,0.173,2.000,29.023,-18.916,-6.611
-0.920,0.197,2.000,79.107,-39.122,26.878
-0.834,0.196,2.000,115.718,-53.443,54.137
-0.737,0.207,1.902,145.359,-64.321,76.191
-0.605,0.218,1.668,173.656,-71.237,96.473
-0.477,0.215,1.421,200.725,-69.779,111.298
-0.385,0.234,1.207,222.214,-66.275,119.771
-0.316,0.243,1.036,238.687,-64.405,123.679
-0.268,0.265,0.895,250.130,-65.061,125.099
-0.231,0.291,0.789,250.130,-69.008,124.282
-0.191,0.305,0.682,250.130,-71.977,122.046
-0.163,0.325,0.604,250.130,-71.901,117.916
-0.127,0.366,0.510,250.130,-72.580,113.542
-0.096,0.408,0.440,250.130,-70.840,109.290
-0.086,0.437,0.377,250.130,-69.206,104.153
-0.060,0.493,0.329,250.130,-66.008,97.000
-0.045,0.562,0.266,250.130,-67.863,88.015
-0.027,0.604,0.213,250.130,-68.626,79.153
0.008,0.655,0.155,250.084,-65.374,70.458
0.035,0.702,0.104,239.267,-58.008,62.168
0.056,0.740,0.056,227.595,-48.534,55.168
0.064,0.758,0.037,214.939,-40.351,49.282
0.059,0.779,0.031,201.863,-34.847,44.298
0.041,0.792,0.084,188.336,-33.328,40.282
0.067,0.827,0.042,175.687,-31.947,37.725
0.092,0.847,0.013,163.763,-25.153,36.321
0.111,0.870,0.006,153.176,-17.275,36.237
0.111,0.889,-0.019,143.420,-13.076,37.092
0.108,0.890,-0.024,134.824,-13.634,38.458
0.119,0.889,-0.021,126.397,-14.481,39.618
0.133,0.896,-0.021,118.450,-15.344,40.412
0.140,0.916,-0.036,110.328,-16.473,40.069
0.153,0.931,-0.035,102.977,-17.031,39.885
0.162,0.924,-0.046,95.832,-16.565,39.336
0.169,0.918,-0.047,87.725,-15.786,38.290
0.181,0.923,-0.041,80.901,-14.954,36.382
0.175,0.933,-0.049,73.947,-15.389,33.870
0.184,0.934,-0.044,67.336,-15.099,31.260
0.198,0.929,-0.055,61.824,-13.313,28.679
0.195,0.932,-0.065,57.298,-10.046,25.763
0.208,0.943,-0.069,53.641,-4.740,22.702
0.209,0.941,-0.071,50.290,0.511,18.847
0.205,0.938,-0.061,47.275,3.603,15.618
0.196,0.937,-0.051,43.534,4.260,10.992
0.188,0.948,-0.060,40.130,3.130,6.168
0.169,0.952,-0.060,36.817,1.198,1.794
0.168,0.967,-0.049,33.817,0.046,-1.443
0.155,0.958,-0.056,31.107,-0.191,-3.969
0.140,0.966,-0.050,28.710,0.130,-5.221
0.135,0.976,-0.059,26.397,0.496,-5.687
0.136,0.982,-0.058,23.580,2.595,-5.405
0.130,0.998,-0.056,20.855,5.947,-5.061
0.128,1.005,-0.057,18.504,9.321,-4.359
0.116,1.000,-0.052,16.924,10.359,-3.863
0.105,0.997,-0.050,15.718,9.191,-3.229
0.108,1.004,-0.045,14.626,7.115,-1.969
0.109,1.004,-0.042,12.992,5.466,-0.672
0.110,0.994,-0.024,10.878,5.099,0.458
0.108,1.009,-0.027,9.214,5.115,1.214
0.110,1.011,-0.032,8.069,5.595,2.427
0.109,1.007,-0.021,7.664,6.802,3.939
0.102,1.006,-0.003,7.321,7.061,5.832
0.105,1.007,-0.002,7.008,6.496,7.382
0.118,1.018,0.002,7.359,6.794,8.962
0.123,1.007,0.004,8.489,7.473,10.847
0.123,1.004,0.010,10.496,5.412,12.443
0.130,0.993,0.010,12.931,0.565,13.992
0.138,0.983,0.017,15.160,-3.267,15.008
0.146,0.983,0.003,17.458,-4.725,15.634
0.163,0.979,-0.004,19.527,-5.534,15.344
0.175,0.979,-0.014,21.618,-4.611,15.069
0.182,0.976,-0.019,24.229,-2.748,14.763
0.181,0.972,-0.025,26.840,-1.099,14.092
0.186,0.976,-0.022,29.183,-0.496,12.893
0.190,0.977,-0.032,30.870,-0.710,11.779
0.183,0.969,-0.039,32.183,-1.565,10.137
0.198,0.963,-0.060,33.252,-2.939,9.168
0.202,0.967,-0.055,34.000,-4.374,7.557
0.197,0.967,-0.067,33.679,-6.153,6.137
0.201,0.974,-0.083,32.321,-9.267,5.130
0.201,0.974,-0.089,30.733,-11.977,3.847
0.209,0.970,-0.107,29.672,-12.099,2.573
0.218,0.976,-0.118,28.802,-10.458,1.244
0.219,0.976,-0.120,27.618,-7.634,0.008
0.201,0.985,-0.122,26.191,-5.290,-1.710
0.189,0.986,-0.140,24.695,-4.328,-3.107
0.184,0.989,-0.129,22.870,-4.519,-4.183
0.180,0.990,-0.148,21.275,-4.038,-5.092
0.167,0.987,-0.146,19.565,-3.595,-5.634
0.166,0.998,-0.145,18.115,-3.374,-5.504
0.169,0.994,-0.159,16.466,-1.954,-4.649
0.165,0.996,-0.168,15.405,1.046,-4.130
0.154,0.986,-0.162,14.092,3.252,-3.550
0.158,0.989,-0.159,12.710,4.656,-2.847
0.150,0.982,-0.148,11.290,3.916,-1.962
0.147,0.986,-0.150,9.656,3.061,-1.412
0.143,0.984,-0.149,8.015,1.802,-1.069
0.139,0.983,-0.143,6.733,0.802,-1.191
0.146,0.990,-0.152,5.725,-0.771,-0.916
0.144,0.988,-0.156,4.954,-1.863,-0.336

0.216,0.810,-0.813,-130.511,-139.832,-12.603
0.290,0.820,-1.034,-163.176,-108.679,-17.153
0.282,0.770,-1.112,-207.046,-40.664,-21.947
0.229,0.700,-1.187,-250.137,32.542,-30.031
0.166,0.618,-1.154,-250.137,85.061,-41.115
0.116,0.531,-1.060,-250.137,125.229,-53.588
0.083,0.402,-0.937,-250.137,159.916,-65.756
0.070,0.263,-0.775,-250.137,195.534,-77.611
0.054,0.126,-0.563,-250.137,233.885,-89.191
0.017,0.039,-0.324,-250.137,250.130,-102.183
-0.014,-0.019,-0.088,-250.137,250.130,-115.802
-0.100,-0.098,0.256,-250.137,250.130,-131.565
-0.198,-0.182,0.502,-250.137,250.130,-146.023
-0.257,-0.265,0.770,-250.137,250.130,-158.481
-0.328,-0.300,1.053,-250.137,250.130,-169.099
-0.480,-0.333,1.424,-250.137,245.137,-180.122
-0.619,-0.300,1.830,-250.137,213.611,-185.672
-0.731,-0.212,2.000,-250.137,176.191,-181.595
-0.840,-0.125,2.000,-250.137,137.779,-169.527
-0.953,-0.055,2.000,-183.244,96.565,-149.519
-1.016,0.003,2.000,-99.366,56.733,-122.664
-1.073,0.013,2.000,-19.863,17.519,-89.435
-1.079,0.050,2.000,49.695,-18.992,-54.153
-1.042,0.085,2.000,107.641,-49.847,-17.695
-0.966,0.094,2.000,151.122,-69.855,15.122
-0.851,0.130,1.994,183.534,-79.908,43.786
-0.742,0.100,1.739,208.153,-81.176,65.771
-0.644,0.152,1.510,227.290,-76.183,82.053
-0.572,0.165,1.320,241.656,-69.344,94.534
-0.502,0.175,1.148,250.130,-65.183,103.840
-0.453,0.210,1.010,250.130,-64.832,110.252
-0.404,0.232,0.881,250.130,-66.008,113.740
-0.350,0.284,0.762,250.130,-67.130,115.282
-0.301,0.303,0.649,250.130,-67.901,116.397
-0.256,0.325,0.573,250.130,-64.237,117.031
-0.214,0.357,0.482,250.130,-59.183,116.611
-0.194,0.414,0.424,250.130,-54.382,113.855
-0.175,0.448,0.367,250.130,-54.061,111.008
-0.168,0.474,0.335,250.130,-54.412,106.847
-0.161,0.500,0.328,250.130,-57.763,100.565
-0.138,0.545,0.266,250.130,-61.015,93.099
-0.121,0.593,0.215,250.130,-62.985,83.985
-0.102,0.637,0.180,250.130,-61.115,75.046
-0.087,0.694,0.165,250.130,-57.405,66.137
-0.069,0.749,0.122,236.527,-53.206,59.191
-0.032,0.772,0.090,221.336,-48.076,53.878
-0.042,0.797,0.062,206.832,-43.443,49.443
-0.043,0.818,0.067,192.763,-41.962,45.962
-0.023,0.832,0.044,180.229,-41.733,43.748
0.003,0.857,0.013,167.893,-41.397,42.695
0.025,0.883,0.001,156.099,-37.710,42.733
0.050,0.893,-0.013,144.931,-30.031,44.038
0.056,0.909,-0.015,134.221,-22.824,45.695
0.083,0.912,-0.022,123.450,-17.130,47.733
0.087,0.915,-0.042,112.763,-13.916,48.992
0.089,0.919,-0.047,102.450,-14.000,49.252
0.111,0.925,-0.051,92.679,-15.893,48.969
0.121,0.933,-0.057,83.412,-18.221,48.115
0.129,0.944,-0.072,75.611,-20.702,46.824
0.143,0.925,-0.084,69.000,-21.206,45.031
0.153,0.926,-0.079,62.542,-18.626,43.160
0.161,0.934,-0.082,55.954,-14.206,39.924
0.158,0.929,-0.075,48.962,-11.534,35.847
0.162,0.927,-0.081,44.061,-10.397,32.244
0.176,0.922,-0.076,40.344,-9.267,28.725
0.178,0.941,-0.086,37.748,-8.206,24.962
0.177,0.941,-0.084,35.580,-6.504,21.382
0.180,0.935,-0.086,33.565,-4.496,17.603
0.179,0.943,-0.077,31.710,-1.901,13.763
0.169,0.947,-0.079,29.985,1.099,9.763
0.167,0.957,-0.080,28.397,4.069,5.885
0.157,0.958,-0.083,27.282,5.244,3.527
0.155,0.945,-0.059,25.282,7.305,2.107
0.143,0.975,-0.060,22.534,8.321,1.511
0.135,0.980,-0.046,20.206,8.137,0.977
0.129,0.989,-0.042,18.702,6.603,1.160
0.132,0.974,-0.043,17.893,4.931,1.725
0.137,0.984,-0.044,17.130,4.985,2.939
0.129,0.999,-0.031,15.740,5.214,3.069
0.122,0.993,-0.026,14.557,4.595,3.679
0.116,0.991,-0.011,14.076,3.664,4.489
0.125,0.991,-0.023,14.496,2.427,5.305
0.123,0.993,-0.011,14.725,1.878,6.038
0.122,0.990,-0.005,14.031,2.458,6.443
0.115,1.011,0.007,12.603,0.260,6.359
0.127,1.011,-0.012,11.878,-1.031,7.450
0.130,1.004,-0.009,13.061,-1.237,8.779
0.142,0.993,-0.005,15.053,-1.511,10.176
0.142,0.993,-0.009,17.092,-0.710,11.344
0.144,0.984,-0.009,18.137,0.099,11.275
0.142,0.991,0.001,18.443,-2.374,10.794
0.153,0.983,-0.020,18.977,-4.931,10.046
0.156,0.976,-0.026,19.985,-6.008,8.702
0.170,0.980,-0.034,21.008,-5.855,7.290
0.174,0.985,-0.051,21.084,-4.519,6.122
0.178,0.980,-0.063,20.107,-2.405,5.015
0.172,0.992,-0.065,18.244,-1.351,3.878
0.176,0.992,-0.077,16.702,-1.412,2.168
0.173,0.979,-0.070,15.771,-1.687,0.710
0.166,0.975,-0.092,15.519,0.107,-0.069
0.174,0.979,-0.078,15.565,1.481,-0.702
0.177,0.975,-0.088,15.069,2.405,-1.237
0.171,0.980,-0.097,14.275,3.237,-2.023
0.175,0.971,-0.081,13.542,0.916,-3.145
0.168,0.995,-0.099,11.962,0.473,-4.641
0.154,0.980,-0.103,10.282,1.557,-5.313
0.145,0.990,-0.101,8.473,2.191,-5.267
0.153,0.991,-0.091,6.626,2.382,-4.313
0.146,0.996,-0.103,4.626,2.794,-3.344
0.136,1.000,-0.106,3.099,4.389,-2.519
0.147,1.000,-0.099,2.061,6.046,-1.809
0.135,0.991,-0.084,0.847,7.160,-1.450
0.127,1.006,-0.083,-0.221,5.237,-1.069
0.132,0.992,-0.066,-1.122,2.679,-0.794
0.132,0.985,-0.081,-1.466,1.542,-0.527
0.133,0.998,-0.083,-1.405,1.000,-0.160
0.135,0.996,-0.083,-1.786,1.244,0.290
0.133,1.002,-0.078,-1.710,1.237,0.420
0.143,0.997,-0.081,-1.634,2.122,0.710

0.070,0.914,-0.783,-67.809,-187.069,-25.397
0.235,1.016,-1.154,-122.198,-161.634,-17.939
0.290,0.984,-1.367,-185.634,-90.115,-4.107
0.282,0.912,-1.455,-250.137,1.695,10.756
0.190,0.753,-1.387,-250.137,65.656,19.092
0.116,0.498,-1.252,-250.137,93.550,17.618
0.131,0.240,-1.056,-250.137,127.282,5.000
0.199,0.060,-0.860,-250.137,182.618,-12.939
0.238,-0.058,-0.615,-250.137,250.130,-36.687
0.194,-0.213,-0.271,-250.137,250.130,-66.817
0.056,-0.349,0.025,-250.137,250.130,-98.580
-0.140,-0.477,0.422,-250.137,250.130,-130.634
-0.369,-0.547,0.852,-250.137,250.130,-156.947
-0.502,-0.574,1.184,-250.137,250.130,-177.824
-0.506,-0.414,1.498,-250.137,245.076,-186.962
-0.628,-0.311,1.986,-250.137,200.718,-185.496
-0.748,-0.198,2.000,-250.137,141.137,-170.969
-0.865,-0.095,2.000,-230.290,80.260,-145.977
-0.940,-0.089,2.000,-121.206,30.420,-114.267
-0.986,-0.057,2.000,-25.573,-12.634,-78.916
-0.965,-0.086,2.000,53.649,-43.420,-42.160
-0.872,-0.014,2.000,113.008,-56.031,-5.916
-0.777,0.045,2.000,151.939,-64.023,27.588
-0.669,0.076,1.889,178.321,-61.481,57.145
-0.589,0.106,1.682,196.740,-57.084,80.237
-0.523,0.123,1.515,208.298,-56.924,94.771
-0.464,0.159,1.337,218.626,-58.099,105.145
-0.393,0.194,1.182,229.802,-62.901,111.924
-0.325,0.221,1.080,240.046,-68.847,115.511
-0.266,0.236,0.937,250.038,-73.053,118.382
-0.210,0.243,0.827,250.130,-72.702,119.786
-0.169,0.260,0.731,250.130,-67.931,119.550
-0.143,0.283,0.638,250.130,-64.794,117.908
-0.106,0.308,0.559,250.130,-61.947,114.573
-0.088,0.339,0.488,250.130,-61.786,110.122
-0.072,0.391,0.416,250.130,-61.794,103.840
-0.052,0.437,0.381,250.130,-63.115,96.008
-0.030,0.488,0.328,250.130,-62.901,86.916
-0.034,0.536,0.317,250.130,-66.305,76.550
-0.011,0.609,0.234,250.130,-69.496,65.969
0.009,0.678,0.197,246.557,-69.641,54.565
0.032,0.704,0.157,233.275,-67.756,46.092
0.045,0.740,0.133,217.481,-62.863,38.252
0.060,0.775,0.091,203.298,-56.267,32.947
0.059,0.809,0.103,187.534,-51.809,29.053
0.080,0.844,0.092,174.122,-44.321,27.977
