aX,aY,aZ,gX,gY,gZ
-0.208,0.266,1.342,158.656,140.183,75.397
-0.222,0.288,1.440,208.641,149.809,91.664
-0.284,0.278,1.546,250.130,164.366,106.427
-0.406,0.304,1.617,250.130,169.542,119.656
-0.530,0.327,1.683,250.130,151.534,135.679
-0.601,0.334,1.653,250.130,119.435,151.794
-0.646,0.324,1.618,250.130,72.076,168.366
-0.636,0.265,1.461,250.130,7.206,183.962
-0.589,0.177,1.221,250.130,-53.580,190.885
-0.479,0.153,0.943,250.130,-107.557,188.618
-0.371,0.121,0.696,250.130,-159.412,178.832
-0.204,0.160,0.410,250.130,-195.718,164.397
-0.049,0.240,0.143,250.130,-202.481,149.313
0.097,0.306,-0.121,250.130,-184.160,134.435
0.193,0.380,-0.351,250.130,-143.099,116.023
0.231,0.485,-0.519,250.130,-107.267,95.351
0.269,0.545,-0.624,250.130,-84.405,78.664
0.260,0.595,-0.699,250.130,-64.504,58.580
0.243,0.637,-0.795,239.855,-50.084,36.969
0.222,0.622,-0.804,193.611,-43.542,18.366
0.190,0.683,-0.787,147.008,-33.740,6.237
0.197,0.734,-0.852,102.664,-18.336,-4.878
0.157,0.776,-0.868,58.802,-0.985,-13.878
0.115,0.821,-0.855,10.725,22.702,-23.084
0.066,0.855,-0.809,-30.733,42.534,-27.450
0.024,0.876,-0.785,-68.847,57.893,-28.779
-0.045,0.890,-0.711,-106.275,65.229,-27.656
-0.091,0.913,-0.633,-139.908,66.031,-24.092
-0.089,0.946,-0.552,-176.443,67.053,-17.954
-0.088,0.952,-0.462,-205.573,75.992,-11.550
-0.079,0.935,-0.362,-228.634,91.802,-4.786
-0.055,0.922,-0.227,-243.954,114.267,2.092
-0.061,0.880,-0.094,-250.137,135.702,7.298
-0.086,0.838,0.045,-250.137,143.382,10.191
-0.077,0.829,0.177,-249.618,142.366,12.122
-0.071,0.809,0.296,-242.924,139.382,12.824
-0.066,0.800,0.411,-230.802,133.756,12.779
-0.057,0.788,0.516,-213.275,125.748,13.023
-0.075,0.771,0.615,-188.168,110.695,11.336
-0.092,0.765,0.711,-163.557,92.412,8.435
-0.090,0.793,0.768,-135.580,68.351,6.107
-0.100,0.797,0.806,-110.389,47.282,6.092
-0.092,0.804,0.805,-89.038,27.481,7.160
-0.094,0.847,0.791,-70.573,9.626,7.824
-0.086,0.870,0.757,-56.817,-2.618,8.855
-0.085,0.878,0.712,-45.702,-8.321,9.924
-0.072,0.886,0.672,-36.420,-11.000,11.672
-0.082,0.892,0.620,-29.519,-14.916,13.771
-0.072,0.887,0.591,-26.824,-20.634,16.763
-0.045,0.893,0.555,-28.031,-25.947,19.840
-0.044,0.856,0.500,-31.389,-29.450,22.000
-0.003,0.859,0.474,-37.206,-25.573,23.489
0.019,0.865,0.451,-44.076,-20.359,25.229
0.013,0.852,0.450,-50.023,-16.496,26.504
0.026,0.837,0.441,-55.756,-15.130,27.916
0.036,0.821,0.437,-61.504,-14.076,29.328
0.035,0.803,0.422,-65.069,-11.313,28.817
0.053,0.799,0.422,-66.977,-4.275,28.038
0.062,0.793,0.422,-68.198,3.756,26.817
0.048,0.776,0.436,-69.847,13.702,25.504
0.058,0.769,0.458,-70.893,22.718,24.794
0.083,0.780,0.469,-70.260,30.794,25.267
0.049,0.760,0.515,-70.206,31.328,25.687
0.062,0.745,0.531,-70.130,29.557,24.962
0.078,0.728,0.558,-69.053,28.351,24.244
0.076,0.720,0.568,-67.275,28.939,22.061
0.079,0.716,0.599,-64.473,25.305,19.534
0.075,0.699,0.601,-61.092,23.023,16.374
0.091,0.704,0.605,-57.183,23.107,13.710
0.100,0.707,0.606,-54.015,27.473,11.145
0.083,0.705,0.633,-51.672,32.740,8.237
0.083,0.700,0.642,-49.901,35.145,5.779
0.080,0.733,0.685,-47.458,33.435,3.901
0.072,0.698,0.708,-44.443,30.656,2.855
0.068,0.677,0.722,-40.145,25.473,2.847
0.054,0.640,0.728,-36.145,23.168,2.298
0.041,0.617,0.736,-31.695,21.603,1.779
0.060,0.637,0.749,-26.756,19.053,2.290
0.050,0.640,0.756,-21.344,15.275,2.229
0.054,0.660,0.755,-15.168,10.206,2.015
0.061,0.674,0.750,-8.962,3.863,1.252
0.070,0.671,0.740,-4.084,-1.023,0.244
0.076,0.669,0.716,-0.405,-2.855,-1.130
0.081,0.665,0.700,2.557,-0.847,-2.450
0.082,0.667,0.688,4.450,3.992,-3.718
0.063,0.673,0.686,6.092,7.595,-4.687
0.057,0.674,0.687,6.962,8.748,-5.038
0.039,0.684,0.692,7.237,7.939,-4.786
0.038,0.678,0.695,6.786,5.260,-3.756
0.035,0.675,0.697,7.267,2.649,-2.725
0.046,0.670,0.697,8.313,0.282,-1.092
0.036,0.659,0.687,10.328,-1.756,-0.435
0.049,0.675,0.678,12.099,-4.504,-0.992
0.064,0.672,0.667,12.374,-6.832,-1.916
0.053,0.676,0.653,11.511,-8.672,-4.832
0.052,0.688,0.628,11.321,-8.832,-8.191
0.050,0.703,0.625,11.702,-6.122,-10.473
0.042,0.699,0.620,12.771,-4.008,-11.298
0.028,0.701,0.624,13.382,-2.969,-11.794
0.001,0.713,0.621,12.863,-2.420,-12.580
0.009,0.720,0.612,12.763,-1.931,-12.275
-0.000,0.731,0.606,13.779,-1.573,-10.779
0.008,0.729,0.594,15.802,2.099,-8.427
0.019,0.731,0.605,18.870,8.160,-5.244
0.014,0.736,0.587,21.160,10.748,-2.725
-0.004,0.711,0.603,22.954,11.481,-1.252
-0.003,0.731,0.594,23.122,9.000,-0.618
-0.010,0.731,0.603,21.489,2.405,-0.695
-0.001,0.728,0.581,20.183,-3.374,-0.290
0.003,0.733,0.562,18.618,-7.084,0.916
0.023,0.751,0.557,17.565,-6.443,1.939
0.028,0.748,0.537,16.260,-3.191,3.260
0.028,0.742,0.531,15.061,0.740,3.611
0.030,0.754,0.534,14.038,1.519,3.550
0.025,0.740,0.537,13.168,1.664,4.328
0.027,0.727,0.531,13.420,3.878,5.122
0.048,0.727,0.536,13.336,8.366,6.389
0.045,0.735,0.546,12.527,10.817,6.374
0.043,0.740,0.543,11.031,9.473,5.061

-0.085,0.707,1.029,48.206,80.626,-3.389
-0.130,0.692,1.138,65.489,75.328,-0.855
-0.159,0.673,1.248,88.687,63.748,1.870
-0.168,0.698,1.340,120.115,59.779,4.221
-0.243,0.667,1.460,159.160,43.366,7.305
-0.315,0.653,1.539,206.038,11.908,13.023
-0.330,0.658,1.569,250.130,-14.099,20.588
-0.394,0.665,1.550,250.130,-44.725,30.534
-0.428,0.618,1.467,250.130,-76.206,46.565
-0.407,0.609,1.281,250.130,-104.847,64.748
-0.434,0.523,1.075,250.130,-130.557,80.443
-0.377,0.518,0.829,250.130,-154.489,91.626
-0.343,0.478,0.561,250.130,-187.137,98.191
-0.290,0.445,0.242,250.130,-221.366,99.786
-0.188,0.485,-0.075,250.130,-250.137,97.916
-0.108,0.446,-0.389,250.130,-250.137,90.870
0.003,0.529,-0.731,250.130,-250.137,82.427
0.098,0.533,-1.101,250.130,-206.481,72.710
0.149,0.539,-1.314,250.130,-154.557,65.031
0.171,0.552,-1.451,250.130,-100.573,57.832
0.183,0.500,-1.530,250.130,-56.641,47.420
0.193,0.410,-1.550,200.221,-24.191,35.214
0.193,0.339,-1.528,144.229,0.229,20.176
0.178,0.306,-1.488,85.237,15.634,2.214
0.149,0.231,-1.467,34.885,17.870,-11.947
0.127,0.200,-1.438,-7.275,19.000,-22.885
0.118,0.213,-1.417,-40.145,22.565,-29.107
0.094,0.228,-1.382,-74.313,28.328,-32.939
0.079,0.260,-1.316,-101.183,33.405,-33.992
0.073,0.314,-1.268,-126.534,38.389,-33.176
0.063,0.386,-1.198,-147.137,46.267,-33.221
0.059,0.456,-1.115,-164.847,55.580,-35.031
0.061,0.529,-1.022,-181.145,62.244,-37.328
0.054,0.595,-0.916,-194.985,66.359,-39.160
0.064,0.681,-0.797,-210.687,73.412,-41.763
0.072,0.737,-0.698,-224.069,81.595,-44.344
0.075,0.810,-0.591,-236.443,93.771,-46.557
0.070,0.856,-0.473,-247.458,106.771,-48.168
0.047,0.908,-0.356,-250.137,119.725,-49.573
0.007,0.932,-0.245,-250.137,121.321,-52.351
-0.007,0.933,-0.143,-250.137,122.908,-53.771
-0.040,0.912,-0.054,-250.137,122.832,-53.588
-0.076,0.884,0.040,-250.137,111.649,-49.824
-0.100,0.855,0.135,-250.137,92.153,-43.115
-0.096,0.858,0.180,-250.137,71.275,-36.015
-0.094,0.825,0.218,-250.137,55.305,-27.924
-0.077,0.809,0.279,-250.137,47.183,-21.679
-0.072,0.787,0.335,-250.137,47.046,-17.931
-0.073,0.782,0.389,-250.137,50.969,-16.786
-0.069,0.786,0.435,-250.137,53.504,-16.038
-0.070,0.788,0.472,-242.809,49.710,-15.481
-0.069,0.787,0.523,-223.802,42.168,-14.244
-0.063,0.779,0.559,-202.779,33.695,-12.687
-0.063,0.772,0.577,-182.137,24.237,-12.130
-0.048,0.774,0.584,-164.466,16.863,-11.405
-0.019,0.766,0.595,-149.725,15.855,-11.641
-0.012,0.748,0.615,-140.771,24.550,-13.473
-0.013,0.750,0.664,-135.206,37.748,-16.382
-0.031,0.734,0.698,-130.366,47.870,-20.176
-0.055,0.740,0.746,-126.168,52.931,-22.962
-0.069,0.745,0.774,-119.565,54.511,-25.107
-0.095,0.740,0.808,-108.366,50.466,-25.282
-0.102,0.745,0.842,-96.099,43.405,-23.344
-0.116,0.726,0.841,-85.435,33.985,-20.176
-0.118,0.726,0.855,-72.206,22.939,-16.924
-0.109,0.711,0.855,-62.252,16.817,-14.229
-0.101,0.707,0.847,-52.443,15.931,-12.061
-0.100,0.703,0.857,-43.595,17.252,-10.519
-0.104,0.703,0.862,-33.824,19.458,-8.450
-0.104,0.708,0.866,-24.656,18.687,-6.229
-0.102,0.710,0.849,-13.969,13.695,-2.618
-0.094,0.707,0.844,-5.634,9.130,-0.008
-0.095,0.716,0.829,2.702,2.069,1.916
-0.080,0.702,0.796,10.466,-6.046,2.824
-0.073,0.700,0.760,15.870,-12.008,2.382
-0.047,0.710,0.719,20.290,-14.901,0.916
-0.036,0.708,0.680,23.069,-14.481,-0.473
-0.024,0.715,0.653,24.855,-12.550,-2.137
-0.033,0.721,0.625,24.893,-9.672,-4.015
-0.027,0.724,0.593,24.252,-8.023,-6.046
-0.047,0.724,0.578,23.405,-6.931,-7.519
-0.044,0.734,0.560,22.305,-6.008,-8.847
-0.049,0.741,0.559,20.557,-5.756,-9.885
-0.058,0.760,0.545,18.985,-5.458,-10.771
-0.062,0.752,0.526,17.473,-4.229,-11.168
-0.064,0.765,0.523,16.137,-2.321,-11.321
-0.077,0.757,0.533,14.252,-0.305,-11.481
-0.083,0.762,0.524,12.458,1.458,-10.756
-0.094,0.766,0.524,10.924,2.802,-10.107
-0.105,0.771,0.532,9.267,3.702,-9.107
-0.113,0.781,0.531,8.099,3.771,-7.824
-0.114,0.782,0.534,7.290,3.992,-6.244
-0.111,0.788,0.545,7.107,3.855,-4.664
-0.119,0.788,0.541,6.870,3.893,-2.191
-0.115,0.781,0.541,6.748,3.656,-0.786
-0.116,0.796,0.548,6.122,2.473,0.725
-0.112,0.775,0.555,5.504,1.679,1.962
-0.106,0.770,0.549,5.290,-0.031,2.702
-0.094,0.765,0.550,5.336,-0.962,2.763
-0.094,0.766,0.540,5.389,-0.794,2.573
-0.080,0.768,0.540,4.992,0.916,1.740
-0.078,0.769,0.541,4.237,2.710,0.916
-0.083,0.764,0.532,3.832,5.092,-0.160
-0.082,0.775,0.546,3.580,6.168,-0.534
-0.093,0.771,0.541,3.466,6.237,-0.939
-0.087,0.773,0.543,2.802,6.214,-1.084
-0.084,0.774,0.537,2.542,6.214,-0.893
-0.087,0.784,0.545,2.389,5.359,-0.328
-0.089,0.785,0.542,2.160,4.687,0.611
-0.088,0.782,0.540,1.985,4.458,1.275
-0.081,0.779,0.534,1.519,4.008,1.985
-0.082,0.780,0.533,0.809,3.275,2.366
-0.079,0.780,0.536,0.092,1.672,2.527
-0.068,0.774,0.527,-0.473,0.710,2.519
-0.065,0.768,0.530,-0.519,1.229,2.153
-0.055,0.771,0.524,-0.573,2.656,1.580
-0.055,0.777,0.519,-0.153,3.198,1.107
-0.060,0.775,0.523,0.511,3.366,0.908
-0.060,0.778,0.525,0.237,2.847,0.840

-0.145,0.762,0.933,23.511,36.061,14.023
-0.178,0.729,1.054,30.282,45.336,16.878
-0.207,0.759,1.210,44.870,58.412,21.290
-0.256,0.723,1.405,72.084,63.115,29.031
-0.377,0.682,1.589,113.000,54.840,39.244
-0.455,0.682,1.722,165.969,32.130,51.359
-0.512,0.682,1.788,223.466,3.137,66.679
-0.498,0.662,1.742,250.130,-22.397,85.366
-0.476,0.616,1.643,250.130,-39.977,105.137
-0.463,0.579,1.472,250.130,-66.634,125.397
-0.381,0.507,1.218,250.130,-101.244,145.443
-0.301,0.413,0.953,250.130,-129.550,158.473
-0.246,0.318,0.708,250.130,-163.863,163.603
-0.192,0.252,0.460,250.130,-207.260,159.122
-0.130,0.201,0.194,250.130,-246.718,147.237
-0.063,0.106,-0.171,250.130,-250.137,128.702
0.007,0.085,-0.497,250.130,-250.137,107.924
0.105,0.115,-0.769,250.130,-250.137,91.733
0.181,0.136,-1.049,250.130,-250.137,74.031
0.212,0.135,-1.277,250.130,-215.122,60.992
0.225,0.201,-1.517,250.130,-154.008,45.176
0.232,0.258,-1.679,250.130,-98.641,28.328
0.227,0.292,-1.813,250.130,-58.122,10.786
0.182,0.328,-1.836,223.763,-34.382,-6.313
0.154,0.350,-1.856,142.115,-20.290,-24.580
0.124,0.340,-1.841,63.672,-7.847,-39.542
0.098,0.355,-1.784,-5.534,11.244,-49.176
0.044,0.340,-1.667,-61.916,29.939,-53.115
0.005,0.340,-1.540,-102.985,40.206,-52.969
-0.045,0.366,-1.400,-138.008,46.382,-50.076
-0.067,0.392,-1.284,-164.489,51.344,-45.214
-0.069,0.430,-1.207,-183.412,57.366,-38.710
-0.078,0.444,-1.084,-195.550,64.382,-30.550
-0.071,0.500,-1.007,-204.389,68.145,-19.901
-0.063,0.561,-0.890,-211.969,64.191,-7.702
-0.022,0.629,-0.771,-220.176,53.176,4.855
0.037,0.690,-0.736,-227.313,48.221,14.427
0.105,0.749,-0.648,-232.305,51.931,22.374
0.139,0.774,-0.571,-235.641,55.840,26.939
0.167,0.800,-0.474,-239.313,58.130,27.771
0.198,0.812,-0.401,-243.412,63.550,25.076
0.214,0.834,-0.302,-248.366,72.962,19.023
0.233,0.833,-0.229,-250.137,85.573,11.710
0.223,0.837,-0.163,-250.137,96.519,3.626
0.206,0.832,-0.070,-250.137,102.748,-3.198
0.200,0.830,-0.008,-248.504,105.313,-8.885
0.200,0.827,0.040,-240.595,105.260,-12.115
0.193,0.825,0.091,-230.664,104.588,-14.725
0.156,0.805,0.151,-220.115,101.496,-16.931
0.142,0.818,0.196,-211.130,96.092,-19.458
0.125,0.827,0.250,-202.702,87.710,-22.282
0.118,0.824,0.288,-195.328,77.626,-24.947
0.114,0.836,0.321,-188.122,71.885,-27.901
0.096,0.837,0.354,-181.290,67.366,-31.237
0.080,0.845,0.388,-176.565,61.099,-35.275
0.090,0.872,0.416,-171.336,59.061,-38.198
0.091,0.866,0.438,-164.855,62.588,-39.740
0.083,0.849,0.473,-158.634,68.053,-40.824
0.079,0.858,0.490,-151.221,73.649,-42.023
0.068,0.854,0.514,-142.863,77.122,-42.237
0.039,0.832,0.544,-133.740,77.221,-42.595
0.011,0.847,0.574,-122.954,71.458,-42.763
-0.008,0.835,0.603,-112.977,64.450,-42.519
-0.011,0.852,0.622,-102.802,57.466,-41.153
-0.029,0.855,0.637,-94.611,52.985,-39.008
-0.049,0.840,0.654,-84.901,47.305,-36.275
-0.064,0.841,0.678,-78.321,41.840,-33.626
-0.078,0.852,0.696,-71.832,37.374,-30.863
-0.077,0.851,0.712,-64.389,30.954,-26.214
-0.074,0.842,0.708,-56.145,24.183,-20.160
-0.070,0.846,0.713,-48.290,17.954,-15.168
-0.053,0.853,0.710,-39.916,14.779,-10.603
-0.053,0.825,0.704,-31.321,12.542,-6.473
-0.047,0.817,0.704,-23.145,9.504,-3.305
-0.051,0.815,0.689,-15.511,5.427,-1.695
-0.035,0.807,0.699,-8.191,2.023,-1.344
-0.032,0.802,0.679,-1.344,-1.672,-0.977
-0.018,0.809,0.658,4.802,-5.115,-0.664
-0.010,0.804,0.640,10.588,-7.756,-0.603
-0.015,0.807,0.608,15.489,-9.534,-1.061
-0.004,0.807,0.584,17.901,-11.817,-2.168
0.008,0.817,0.539,19.580,-12.595,-3.420
0.009,0.821,0.514,20.809,-10.053,-5.359
0.003,0.828,0.490,20.305,-6.924,-7.565
-0.000,0.828,0.479,19.031,-4.458,-9.076
-0.011,0.834,0.465,17.947,-3.710,-10.321
-0.017,0.844,0.452,17.130,-3.275,-10.252
-0.021,0.837,0.441,16.565,-1.947,-9.664
-0.036,0.845,0.445,15.908,-1.374,-9.336
-0.031,0.849,0.427,14.679,-2.382,-8.435
-0.030,0.856,0.416,13.153,-2.489,-7.656
-0.031,0.854,0.408,11.885,-1.649,-7.443
-0.030,0.856,0.412,10.206,-0.137,-7.084
-0.031,0.859,0.405,8.649,2.702,-6.443
-0.031,0.858,0.395,7.000,4.885,-5.908
-0.039,0.860,0.403,4.763,5.962,-5.420
-0.034,0.863,0.402,2.260,6.336,-4.969
-0.047,0.866,0.413,-0.237,5.664,-4.374
-0.043,0.852,0.418,-2.267,3.229,-3.031
-0.041,0.864,0.422,-3.435,2.084,-2.153
-0.037,0.856,0.431,-3.863,2.542,-1.076
-0.037,0.858,0.434,-4.313,2.771,-0.534
-0.042,0.861,0.435,-3.786,1.443,0.603
-0.037,0.852,0.443,-3.160,0.832,1.198
-0.030,0.858,0.453,-2.618,0.420,2.107
-0.034,0.856,0.452,-2.000,-0.550,2.206
-0.038,0.846,0.460,-1.053,-1.924,2.794
-0.032,0.844,0.464,-0.008,-3.206,3.092
-0.027,0.850,0.471,1.282,-3.641,2.855
-0.031,0.845,0.474,1.840,-3.641,2.664
-0.025,0.848,0.472,2.595,-4.420,2.672
-0.019,0.855,0.465,3.015,-5.740,2.786
-0.011,0.854,0.469,3.550,-5.397,2.771
-0.004,0.846,0.447,3.916,-3.458,2.832
-0.003,0.852,0.436,4.229,-0.634,2.466
-0.001,0.849,0.445,4.122,1.092,2.153
-0.002,0.848,0.431,3.939,2.405,1.656
-0.000,0.853,0.438,3.305,2.046,1.061
0.002,0.852,0.428,2.603,1.435,0.595

-0.123,0.817,0.867,26.969,27.130,1.992
-0.115,0.905,0.938,40.221,33.672,4.908
-0.193,0.794,1.031,63.626,34.435,9.519
-0.253,0.790,1.142,91.573,29.664,16.313
-0.325,0.787,1.272,122.038,15.702,23.725
-0.379,0.775,1.329,155.267,-1.939,33.504
-0.408,0.749,1.354,197.977,-28.198,48.336
-0.370,0.732,1.316,245.656,-52.809,67.847
-0.338,0.713,1.227,250.130,-71.931,88.786
-0.271,0.649,1.098,250.130,-87.519,109.023
-0.213,0.590,0.869,250.130,-103.031,126.191
-0.141,0.521,0.643,250.130,-125.634,137.595
-0.123,0.466,0.464,250.130,-154.748,139.298
-0.097,0.385,0.267,250.130,-191.511,131.420
-0.087,0.353,0.061,250.130,-224.832,117.656
-0.034,0.315,-0.196,250.130,-250.137,99.443
0.021,0.295,-0.456,250.130,-250.137,83.603
0.131,0.286,-0.789,250.130,-250.137,67.031
0.190,0.312,-1.030,250.130,-227.290,49.855
0.240,0.380,-1.278,250.130,-177.519,35.809
0.217,0.365,-1.424,250.130,-123.366,21.573
0.198,0.384,-1.604,250.130,-76.962,7.763
0.203,0.378,-1.701,250.130,-51.649,-2.122
0.174,0.379,-1.799,193.481,-32.191,-15.527
0.163,0.386,-1.836,126.725,-15.099,-26.977
0.158,0.385,-1.843,53.023,3.389,-36.847
0.134,0.374,-1.797,-10.550,19.580,-43.534
0.098,0.382,-1.700,-65.435,34.176,-48.145
0.049,0.369,-1.562,-109.374,43.947,-51.702
0.002,0.371,-1.418,-144.618,49.947,-52.344
-0.012,0.397,-1.301,-171.634,58.679,-50.489
-0.032,0.414,-1.173,-187.916,72.153,-45.344
-0.021,0.454,-1.088,-197.427,84.664,-38.290
-0.037,0.509,-0.937,-204.198,91.275,-30.702
-0.015,0.572,-0.822,-211.237,87.855,-23.420
-0.003,0.628,-0.704,-216.802,78.649,-14.878
0.025,0.688,-0.635,-219.740,66.824,-6.527
0.053,0.739,-0.559,-220.565,58.344,1.237
0.100,0.786,-0.473,-219.718,54.382,7.092
0.125,0.828,-0.401,-219.817,53.824,10.489
0.144,0.845,-0.331,-219.863,56.282,11.916
0.156,0.871,-0.260,-219.992,59.718,10.695
0.172,0.885,-0.197,-219.901,65.954,7.740
0.168,0.887,-0.141,-218.695,71.740,2.695
0.170,0.885,-0.079,-216.176,77.160,-2.313
0.140,0.884,-0.018,-213.366,76.863,-6.626
0.141,0.885,0.033,-209.817,74.687,-9.244
0.120,0.884,0.066,-206.496,68.031,-10.634
0.109,0.875,0.096,-203.290,57.137,-11.710
0.109,0.897,0.127,-199.786,43.328,-11.466
0.129,0.901,0.157,-194.702,33.115,-10.489
0.143,0.866,0.192,-188.107,28.802,-8.641
0.133,0.847,0.212,-182.847,27.267,-8.840
0.135,0.866,0.237,-177.649,29.344,-11.878
0.136,0.861,0.252,-173.038,34.901,-17.282
0.137,0.867,0.245,-167.046,45.664,-23.595
0.113,0.872,0.274,-161.382,53.954,-29.733
0.106,0.909,0.323,-156.053,56.832,-35.527
0.094,0.889,0.346,-150.763,63.626,-37.939
0.060,0.877,0.390,-145.374,68.802,-39.939
0.036,0.874,0.439,-141.122,68.405,-40.519
0.017,0.891,0.468,-137.527,64.588,-39.855
-0.010,0.884,0.503,-132.565,55.802,-38.244
-0.013,0.878,0.523,-126.878,48.267,-35.756
-0.019,0.883,0.542,-118.450,41.740,-31.649
-0.021,0.865,0.566,-109.115,36.603,-26.603
-0.015,0.859,0.581,-99.641,32.947,-21.107
-0.015,0.860,0.589,-88.374,31.290,-16.069
-0.003,0.857,0.617,-77.191,28.954,-11.885
-0.007,0.851,0.635,-67.626,25.443,-8.763
0.007,0.844,0.646,-57.489,20.107,-6.298
0.011,0.830,0.651,-48.534,14.931,-5.252
0.027,0.829,0.655,-41.794,11.313,-5.099
0.023,0.833,0.646,-35.771,8.214,-5.939
0.034,0.818,0.648,-30.183,7.069,-7.000
0.032,0.822,0.646,-24.779,6.466,-7.916
0.034,0.812,0.629,-20.038,6.641,-8.718
0.038,0.817,0.632,-14.756,6.450,-8.992
0.034,0.812,0.617,-9.916,6.511,-9.901
0.033,0.810,0.607,-5.679,6.290,-11.382
0.028,0.819,0.591,-2.282,4.756,-13.153
0.016,0.820,0.573,0.672,2.855,-14.420
0.004,0.829,0.562,3.160,1.908,-14.817
-0.007,0.835,0.545,4.832,-0.427,-15.076
-0.006,0.840,0.528,5.969,-1.702,-15.214
-0.020,0.837,0.513,6.863,-1.496,-14.771
-0.025,0.847,0.504,8.107,-0.076,-14.298
-0.029,0.851,0.500,8.702,0.176,-13.168
-0.037,0.849,0.486,8.824,-0.344,-12.412
-0.043,0.853,0.471,9.260,-1.282,-11.412
-0.037,0.850,0.469,9.435,-2.084,-10.481
-0.039,0.846,0.461,9.954,-2.000,-9.153
-0.043,0.855,0.441,9.779,-1.092,-8.366
-0.039,0.858,0.442,8.954,-1.153,-7.908
-0.048,0.857,0.426,8.008,-1.092,-7.321
-0.047,0.859,0.417,7.069,0.443,-6.366
-0.049,0.862,0.403,5.420,2.786,-5.244
-0.039,0.871,0.415,3.351,4.832,-4.053
-0.042,0.861,0.408,1.153,6.733,-2.397
-0.042,0.862,0.418,-0.763,8.237,-1.527
-0.047,0.860,0.424,-2.298,8.145,-1.313
-0.042,0.860,0.429,-3.275,7.809,-0.863
-0.043,0.858,0.446,-3.885,6.779,-0.450
-0.042,0.852,0.446,-3.542,5.962,0.405
-0.039,0.851,0.440,-3.176,5.351,0.649
-0.033,0.849,0.442,-2.573,6.008,1.061
-0.031,0.855,0.455,-1.885,5.924,1.443
-0.019,0.847,0.450,-1.450,5.969,1.840
-0.023,0.849,0.451,-1.420,5.191,2.313
-0.019,0.849,0.452,-1.550,4.611,2.214
-0.018,0.847,0.456,-1.679,3.779,2.023
-0.011,0.845,0.462,-1.542,3.794,1.565
-0.013,0.846,0.451,-1.336,3.702,1.611
-0.001,0.843,0.448,-1.191,3.656,1.069
-0.009,0.840,0.459,-1.031,4.649,0.763
-0.003,0.843,0.451,-0.824,5.267,0.427
-0.009,0.844,0.446,-0.794,5.481,0.267
0.002,0.847,0.456,-0.832,5.244,-0.191
0.000,0.841,0.449,-0.740,5.374,-0.649

-0.099,0.874,0.851,55.359,62.672,-3.870
-0.167,0.844,0.985,74.130,56.557,-0.855
-0.227,0.846,1.091,97.137,43.099,3.679
-0.336,0.818,1.221,132.527,14.382,10.489
-0.386,0.820,1.271,172.664,-15.588,20.870
-0.384,0.807,1.262,212.603,-41.328,35.145
-0.390,0.812,1.177,250.130,-67.237,55.366
-0.348,0.782,1.101,250.130,-83.076,75.550
-0.321,0.730,0.972,250.130,-93.962,93.008
-0.293,0.688,0.828,250.130,-105.107,104.809
-0.261,0.633,0.681,250.130,-123.450,111.786
-0.213,0.589,0.501,250.130,-144.885,114.870
-0.128,0.555,0.278,250.130,-170.405,115.282
-0.072,0.507,0.073,250.130,-191.962,111.405
-0.030,0.468,-0.182,250.130,-216.015,102.206
0.016,0.454,-0.467,250.130,-230.427,88.069
0.105,0.455,-0.780,250.130,-221.221,74.466
0.157,0.453,-1.007,250.130,-187.351,61.237
0.165,0.460,-1.180,250.130,-140.427,49.817
0.177,0.469,-1.318,250.130,-88.229,37.962
0.145,0.470,-1.400,250.130,-65.718,28.252
0.126,0.464,-1.459,223.947,-55.679,17.458
0.122,0.448,-1.529,166.260,-49.542,4.687
0.130,0.430,-1.567,109.588,-40.710,-7.664
0.119,0.419,-1.595,56.756,-26.496,-17.779
0.090,0.406,-1.586,9.015,-6.519,-26.076
0.083,0.418,-1.523,-30.359,13.267,-30.687
0.056,0.435,-1.446,-69.176,30.695,-33.267
0.038,0.458,-1.356,-99.443,45.626,-34.412
0.011,0.472,-1.241,-122.740,60.313,-33.840
0.011,0.484,-1.154,-138.779,75.649,-32.160
0.008,0.522,-1.044,-149.214,88.702,-28.786
0.019,0.563,-0.944,-157.374,96.908,-24.282
0.023,0.613,-0.848,-164.908,97.695,-18.634
0.031,0.646,-0.739,-170.931,88.817,-12.931
0.048,0.706,-0.644,-176.794,76.122,-6.046
0.096,0.774,-0.580,-184.008,63.244,0.443
0.131,0.833,-0.526,-191.893,56.809,5.046
0.152,0.858,-0.458,-199.672,52.214,6.443
0.163,0.886,-0.403,-206.634,50.847,5.672
0.183,0.900,-0.337,-213.328,56.008,3.298
0.182,0.896,-0.284,-216.985,65.153,-0.618
0.167,0.888,-0.213,-218.496,70.832,-4.435
0.147,0.872,-0.155,-219.511,70.817,-7.221
0.159,0.887,-0.123,-219.649,69.664,-9.794
0.163,0.885,-0.070,-218.901,69.748,-10.260
0.166,0.887,-0.022,-215.725,72.656,-10.786
0.156,0.873,0.032,-209.115,74.000,-13.046
0.139,0.860,0.093,-202.634,71.878,-16.160
0.132,0.853,0.124,-196.061,67.908,-20.290
0.113,0.871,0.197,-188.649,64.466,-26.305
0.085,0.850,0.229,-180.382,57.328,-31.817
0.072,0.875,0.251,-170.809,48.557,-36.206
0.065,0.889,0.269,-159.191,42.145,-38.519
0.059,0.900,0.275,-149.221,40.412,-39.374
0.049,0.922,0.285,-139.061,38.908,-39.336
0.032,0.925,0.305,-129.908,37.893,-38.786
0.029,0.936,0.331,-123.427,40.519,-37.634
0.002,0.939,0.365,-119.794,40.702,-36.328
-0.006,0.949,0.386,-117.260,39.427,-34.595
-0.013,0.944,0.397,-114.412,35.206,-32.389
-0.028,0.949,0.429,-110.756,28.695,-29.038
-0.044,0.911,0.451,-106.176,21.595,-25.519
-0.010,0.949,0.451,-101.183,18.275,-21.878
-0.003,0.924,0.458,-94.863,20.038,-16.756
-0.002,0.912,0.471,-86.603,20.771,-12.382
-0.007,0.896,0.495,-80.206,19.939,-8.664
0.004,0.895,0.507,-73.679,18.267,-6.344
0.001,0.892,0.528,-66.580,17.573,-5.069
0.011,0.885,0.538,-59.817,16.511,-4.443
0.006,0.882,0.541,-53.389,12.000,-3.565
0.016,0.878,0.554,-48.458,8.206,-2.740
0.017,0.873,0.548,-43.466,5.290,-2.725
0.033,0.872,0.548,-38.710,3.878,-2.832
0.032,0.860,0.538,-34.817,4.092,-3.290
0.037,0.860,0.543,-30.611,5.656,-4.649
0.039,0.862,0.533,-25.718,6.611,-5.878
0.035,0.863,0.515,-21.344,6.771,-6.496
0.033,0.863,0.521,-17.206,6.092,-7.176
0.021,0.860,0.522,-14.038,5.931,-8.069
0.011,0.861,0.513,-11.664,4.863,-8.817
0.004,0.862,0.516,-9.702,3.740,-9.130
0.003,0.871,0.497,-7.534,2.916,-8.756
0.001,0.870,0.498,-4.863,2.969,-7.443
-0.003,0.864,0.476,-2.802,2.206,-6.634
0.006,0.873,0.470,-0.916,1.206,-6.137
0.000,0.870,0.456,0.840,1.229,-5.397
-0.005,0.860,0.446,2.603,1.420,-4.794
0.001,0.865,0.439,3.305,1.832,-4.298
-0.004,0.862,0.436,2.771,2.908,-4.740
-0.004,0.875,0.419,1.817,1.947,-4.786
-0.010,0.877,0.417,1.267,0.901,-4.710
0.000,0.874,0.416,1.695,0.939,-4.206
-0.011,0.875,0.415,1.519,2.000,-3.771
-0.004,0.879,0.406,0.832,2.916,-3.229
-0.009,0.874,0.417,0.221,3.397,-2.901
-0.002,0.872,0.411,-0.504,4.779,-2.298
-0.010,0.876,0.401,-0.977,4.382,-1.504
-0.006,0.873,0.412,-1.947,2.847,-0.389
-0.008,0.870,0.407,-3.168,2.252,0.290
0.005,0.876,0.395,-3.366,2.336,0.618
0.007,0.867,0.414,-3.328,3.244,0.893
0.007,0.865,0.414,-3.168,3.863,0.878
0.005,0.859,0.424,-2.771,4.679,0.641
0.012,0.865,0.412,-2.802,5.603,0.214
0.012,0.867,0.426,-2.664,5.832,-0.084
0.004,0.865,0.427,-2.557,4.748,-0.214
0.017,0.862,0.432,-2.740,3.412,0.000
0.011,0.863,0.424,-2.725,3.198,-0.282
0.013,0.860,0.430,-1.908,3.992,-0.939
0.026,0.857,0.426,-1.282,4.962,-1.519
0.013,0.860,0.436,-1.099,5.511,-2.183
0.009,0.859,0.427,-0.756,5.542,-2.794
0.007,0.869,0.422,-0.634,5.412,-3.015
0.008,0.864,0.419,-0.527,4.382,-2.962
-0.003,0.864,0.427,-0.122,3.771,-2.405
0.006,0.873,0.413,0.397,2.527,-1.634
0.008,0.869,0.419,0.939,2.107,-0.618
0.018,0.872,0.411,1.076,2.733,-0.725

0.013,0.895,0.908,61.969,94.275,1.344
-0.142,0.852,1.087,94.015,88.252,2.313
-0.285,0.785,1.258,143.992,45.847,6.679
-0.343,0.806,1.374,194.733,-2.389,17.000
-0.356,0.813,1.393,245.435,-34.748,30.779
-0.369,0.798,1.311,250.130,-60.130,49.481
-0.363,0.747,1.186,250.130,-81.153,71.779
-0.375,0.688,1.022,250.130,-97.382,91.595
-0.348,0.619,0.809,250.130,-125.733,107.542
-0.298,0.564,0.579,250.130,-161.794,118.084
-0.218,0.504,0.321,250.130,-200.786,122.221
-0.099,0.461,0.016,250.130,-229.901,119.244
-0.016,0.395,-0.271,250.130,-240.733,109.458
0.059,0.359,-0.535,250.130,-239.237,97.618
0.125,0.341,-0.827,250.130,-225.397,83.412
0.158,0.308,-1.001,250.130,-197.466,67.244
0.197,0.335,-1.233,250.130,-163.130,50.687
0.225,0.365,-1.424,250.130,-118.252,32.473
0.219,0.380,-1.559,250.130,-79.061,15.473
0.209,0.393,-1.680,237.924,-52.038,-0.443
0.177,0.388,-1.715,171.748,-36.626,-14.649
0.195,0.408,-1.740,97.740,-23.878,-28.130
0.159,0.392,-1.718,36.382,-9.099,-40.008
0.146,0.372,-1.645,-15.947,13.756,-50.160
0.081,0.363,-1.510,-56.901,32.962,-58.015
0.031,0.363,-1.351,-89.664,42.298,-63.305
-0.000,0.395,-1.187,-113.229,47.725,-64.015
-0.027,0.425,-1.082,-130.000,54.191,-62.046
-0.041,0.448,-1.010,-138.221,61.344,-58.298
-0.064,0.474,-0.951,-139.870,65.992,-51.992
-0.078,0.524,-0.838,-139.374,66.046,-43.443
-0.069,0.583,-0.786,-139.206,59.160,-31.802
-0.049,0.653,-0.743,-141.344,48.595,-19.237
-0.029,0.706,-0.703,-145.893,34.702,-7.870
-0.012,0.760,-0.669,-152.130,21.977,1.496
0.032,0.825,-0.634,-158.504,13.672,8.748
0.069,0.868,-0.616,-167.550,12.313,15.359
0.103,0.911,-0.588,-177.206,17.069,19.069
0.125,0.922,-0.541,-186.130,27.817,20.573
0.132,0.923,-0.500,-194.656,38.443,20.275
0.137,0.913,-0.431,-202.527,46.137,18.267
0.136,0.910,-0.379,-209.588,53.168,14.626
0.130,0.902,-0.318,-215.595,59.733,10.000
0.135,0.896,-0.272,-219.985,65.733,4.153
0.122,0.854,-0.225,-222.664,68.534,-0.863
0.130,0.900,-0.177,-224.626,66.321,-6.115
0.139,0.883,-0.146,-224.115,67.069,-9.481
0.137,0.872,-0.093,-220.962,70.809,-12.817
0.111,0.855,-0.043,-216.664,72.992,-17.359
0.104,0.851,0.000,-211.931,71.870,-21.740
0.098,0.865,0.030,-206.855,70.611,-26.832
0.071,0.848,0.077,-200.511,72.076,-31.626
0.081,0.861,0.088,-192.473,76.382,-36.885
0.065,0.903,0.125,-183.458,75.794,-41.832
0.062,0.897,0.156,-171.733,75.000,-45.099
0.016,0.895,0.216,-159.244,73.824,-46.748
-0.000,0.903,0.257,-148.000,69.397,-47.489
-0.028,0.900,0.294,-140.092,62.740,-47.092
-0.037,0.915,0.328,-134.214,54.840,-45.183
-0.040,0.921,0.356,-131.099,48.305,-42.916
-0.058,0.941,0.369,-128.733,42.053,-40.534
-0.070,0.943,0.405,-126.092,35.786,-36.580
-0.079,0.929,0.419,-122.198,33.168,-31.733
-0.075,0.914,0.435,-116.863,30.244,-27.153
-0.054,0.931,0.443,-110.176,30.588,-22.160
-0.045,0.917,0.461,-102.588,30.725,-16.527
-0.040,0.901,0.470,-97.069,30.122,-10.901
-0.047,0.890,0.502,-89.618,26.519,-6.824
-0.025,0.873,0.494,-84.969,18.611,-4.870
-0.029,0.840,0.517,-81.885,12.565,-4.382
-0.010,0.875,0.516,-78.221,7.382,-6.137
0.002,0.861,0.531,-74.031,8.733,-8.725
-0.010,0.853,0.523,-67.595,11.756,-11.611
-0.018,0.843,0.548,-60.939,9.542,-12.786
-0.026,0.842,0.553,-53.771,6.519,-13.344
-0.028,0.840,0.555,-47.313,4.603,-13.687
-0.023,0.853,0.540,-41.450,5.565,-14.466
-0.036,0.850,0.544,-36.481,7.382,-14.870
-0.045,0.847,0.547,-32.557,8.145,-14.962
-0.075,0.838,0.560,-31.260,5.504,-14.893
-0.076,0.847,0.560,-30.382,4.221,-14.817
-0.087,0.830,0.551,-28.473,3.588,-15.321
-0.077,0.859,0.550,-25.183,2.397,-15.130
-0.082,0.852,0.543,-19.916,3.290,-13.779
-0.083,0.843,0.541,-13.626,3.389,-11.008
-0.087,0.853,0.547,-8.611,2.824,-8.153
-0.093,0.842,0.541,-4.466,2.588,-6.092
-0.095,0.840,0.545,-0.931,0.634,-4.557
-0.092,0.841,0.532,1.336,-1.893,-3.504
-0.096,0.841,0.525,3.321,-2.985,-2.679
-0.081,0.845,0.511,4.198,-3.008,-1.802
-0.082,0.840,0.501,4.931,-2.206,-0.695
-0.074,0.845,0.476,5.824,-0.221,0.046
-0.083,0.857,0.478,6.511,-0.366,0.641
-0.076,0.844,0.464,6.328,-2.794,1.954
-0.074,0.843,0.468,6.344,-3.435,2.802
-0.071,0.838,0.455,5.908,-3.855,3.145
-0.069,0.849,0.456,4.916,-4.015,3.099
-0.055,0.840,0.442,4.336,-2.405,3.084
-0.047,0.844,0.436,3.794,0.443,2.992
-0.041,0.840,0.428,2.626,3.412,2.725
-0.037,0.852,0.433,1.130,6.076,2.496
-0.035,0.846,0.425,-0.229,5.641,1.496
-0.037,0.842,0.432,-1.252,3.931,1.275
-0.031,0.841,0.435,-2.504,4.366,0.298
-0.035,0.836,0.437,-3.359,3.885,-0.748
-0.034,0.843,0.435,-4.160,3.328,-1.145
-0.035,0.842,0.441,-4.405,4.069,-1.580
-0.044,0.839,0.442,-5.107,5.893,-2.321
-0.043,0.843,0.455,-5.191,7.153,-2.977
-0.041,0.843,0.449,-5.191,7.519,-2.824
-0.043,0.842,0.467,-4.725,7.809,-2.305
-0.048,0.836,0.462,-4.496,8.214,-1.908
-0.057,0.843,0.470,-4.282,7.351,-1.763
-0.050,0.842,0.471,-4.290,5.489,-1.733
-0.049,0.839,0.472,-4.351,4.985,-1.534
-0.052,0.843,0.477,-4.153,4.237,-1.328
-0.051,0.834,0.478,-4.267,3.107,-1.053
-0.049,0.837,0.471,-3.557,3.267,-1.168

-0.084,0.864,0.871,69.786,27.481,13.107
-0.163,0.786,0.991,98.695,30.695,18.397
-0.171,0.859,1.118,131.794,30.954,26.107
-0.280,0.823,1.240,167.458,20.504,33.099
-0.318,0.807,1.345,213.542,7.519,45.534
-0.344,0.819,1.411,250.130,-5.122,59.405
-0.354,0.767,1.420,250.130,-29.450,77.679
-0.380,0.703,1.387,250.130,-59.290,95.756
-0.368,0.635,1.268,250.130,-90.779,110.908
-0.343,0.542,1.112,250.130,-118.595,122.809
-0.282,0.455,0.919,250.130,-145.344,131.809
-0.231,0.356,0.662,250.130,-177.244,135.237
-0.156,0.281,0.406,250.130,-209.481,130.511
-0.071,0.213,0.082,250.130,-244.397,117.458
-0.002,0.144,-0.294,250.130,-250.137,96.527
0.027,0.106,-0.618,250.130,-250.137,72.756
0.107,0.106,-1.003,250.130,-250.137,51.267
0.175,0.143,-1.345,250.130,-236.832,33.031
0.209,0.187,-1.677,250.130,-184.015,18.153
0.208,0.282,-1.930,250.130,-137.527,12.168
0.141,0.259,-2.000,250.130,-92.305,2.260
0.122,0.285,-2.000,213.802,-32.519,-11.496
0.108,0.274,-2.000,127.748,18.687,-26.908
0.033,0.278,-2.000,42.023,42.908,-43.069
-0.035,0.255,-1.872,-48.947,34.626,-56.031
-0.042,0.243,-1.676,-107.069,38.992,-64.565
-0.072,0.251,-1.475,-149.481,49.122,-67.977
-0.123,0.241,-1.300,-175.420,57.023,-70.298
-0.151,0.270,-1.106,-187.870,62.015,-70.588
-0.132,0.338,-0.993,-190.496,66.695,-64.824
-0.152,0.361,-0.879,-185.023,66.229,-55.061
-0.147,0.441,-0.778,-175.550,62.115,-42.611
-0.143,0.498,-0.697,-164.351,52.557,-28.038
-0.123,0.563,-0.636,-153.870,38.985,-13.496
-0.095,0.614,-0.594,-143.580,23.809,-0.389
-0.054,0.677,-0.583,-134.130,8.710,10.985
0.004,0.752,-0.569,-129.053,-2.733,19.344
0.046,0.835,-0.571,-130.389,-10.595,23.962
0.110,0.898,-0.589,-137.931,-10.069,25.298
0.147,0.944,-0.573,-148.695,0.618,23.237
0.168,0.957,-0.564,-160.740,16.969,18.435
0.169,0.953,-0.513,-172.290,32.611,12.519
0.177,0.944,-0.465,-183.542,45.519,6.351
0.163,0.929,-0.411,-190.733,57.099,1.237
0.145,0.920,-0.354,-196.176,65.107,-3.115
0.134,0.914,-0.296,-201.015,71.733,-7.840
0.104,0.896,-0.233,-204.702,73.802,-11.824
0.083,0.887,-0.176,-207.122,72.313,-15.595
0.081,0.899,-0.145,-207.267,68.664,-18.466
0.052,0.887,-0.098,-203.076,66.954,-21.015
0.044,0.889,-0.065,-196.328,63.992,-22.489
0.025,0.879,-0.005,-188.053,59.664,-22.931
0.003,0.886,0.026,-179.840,53.412,-23.565
0.005,0.911,0.053,-171.733,48.122,-24.466
-0.019,0.919,0.076,-163.176,44.221,-26.305
-0.022,0.928,0.095,-156.397,41.664,-28.473
-0.032,0.946,0.109,-150.473,40.550,-29.557
-0.023,0.972,0.127,-143.076,44.809,-29.252
-0.028,0.977,0.160,-136.588,49.847,-27.504
-0.048,0.982,0.199,-130.763,51.443,-25.084
-0.054,0.979,0.219,-124.969,49.924,-21.649
-0.072,0.982,0.245,-119.160,45.405,-18.008
-0.071,0.974,0.279,-113.603,39.611,-13.954
-0.067,0.969,0.294,-108.649,31.664,-8.779
-0.065,0.971,0.314,-104.924,24.878,-4.183
-0.046,0.965,0.331,-100.916,21.145,0.229
-0.042,0.962,0.337,-95.389,19.145,3.916
-0.025,0.952,0.343,-89.817,16.313,7.527
-0.012,0.941,0.370,-83.527,13.656,10.206
0.003,0.943,0.374,-76.298,14.649,12.664
0.018,0.938,0.383,-70.168,15.214,13.641
0.023,0.924,0.393,-65.504,12.695,13.595
0.031,0.916,0.408,-62.298,9.832,12.985
0.049,0.948,0.408,-61.573,5.496,9.763
0.069,0.945,0.396,-58.298,11.137,6.122
0.062,0.907,0.404,-53.603,13.359,4.176
0.058,0.900,0.413,-48.611,11.466,3.015
0.059,0.912,0.435,-43.702,9.779,0.901
0.051,0.896,0.422,-38.840,8.962,-1.847
0.050,0.896,0.425,-33.534,6.748,-3.779
0.045,0.893,0.437,-29.679,4.427,-5.344
0.036,0.894,0.427,-25.870,3.824,-6.870
0.033,0.907,0.427,-22.198,3.947,-8.275
0.018,0.906,0.416,-19.153,4.374,-9.237
0.023,0.908,0.415,-16.031,4.756,-9.191
0.021,0.905,0.410,-14.031,3.763,-8.702
0.010,0.910,0.412,-12.496,1.603,-8.427
0.001,0.907,0.411,-11.977,-2.160,-8.122
0.009,0.905,0.397,-10.809,-3.092,-7.969
0.003,0.901,0.388,-9.565,-1.443,-7.626
0.010,0.913,0.382,-9.038,-0.847,-6.931
0.006,0.906,0.376,-8.992,-0.565,-6.534
0.006,0.899,0.364,-8.748,0.534,-6.191
0.009,0.902,0.365,-8.580,1.519,-6.427
0.002,0.901,0.368,-8.542,2.107,-7.137
0.009,0.900,0.365,-8.542,3.252,-7.763
0.001,0.894,0.374,-8.061,4.802,-8.260
-0.009,0.906,0.384,-7.435,4.656,-8.954
-0.031,0.903,0.392,-6.366,4.595,-9.099
-0.026,0.904,0.390,-4.939,4.603,-8.435
-0.032,0.904,0.376,-3.817,4.786,-7.267
-0.028,0.905,0.378,-2.252,5.405,-5.550
-0.025,0.905,0.373,-1.496,6.832,-3.809
-0.023,0.902,0.377,-1.588,7.740,-2.748
-0.029,0.907,0.373,-2.069,7.214,-2.183
-0.022,0.902,0.372,-2.870,6.351,-1.893
-0.029,0.904,0.369,-2.901,6.084,-1.443
-0.021,0.897,0.369,-2.481,6.649,-1.405
-0.019,0.900,0.391,-2.557,5.252,-1.420
-0.013,0.896,0.372,-2.679,3.885,-1.191
-0.016,0.895,0.371,-2.794,3.252,-1.229
-0.014,0.901,0.374,-2.588,3.382,-0.878
-0.013,0.894,0.377,-2.672,3.458,-0.542
-0.015,0.894,0.373,-2.183,4.344,0.031
-0.014,0.898,0.378,-2.046,5.611,-0.176
-0.012,0.892,0.372,-1.435,6.420,-0.198
-0.010,0.898,0.375,-1.084,7.328,-0.008
-0.008,0.894,0.371,-0.260,7.412,0.481
-0.007,0.896,0.373,0.359,6.687,0.595

0.006,0.985,0.816,11.771,89.183,4.771
-0.034,0.945,1.042,27.282,124.206,8.435
-0.156,0.915,1.313,53.611,137.855,10.802
-0.419,0.765,1.652,103.634,91.817,16.740
-0.553,0.673,1.952,185.496,4.122,31.366
-0.623,0.621,2.000,250.130,-62.122,49.557
-0.643,0.524,2.000,250.130,-126.916,74.313
-0.527,0.445,1.696,250.130,-175.840,108.847
-0.418,0.287,1.258,250.130,-200.008,139.878
-0.374,0.096,0.876,250.130,-223.420,154.405
-0.353,0.014,0.473,250.130,-250.137,146.038
-0.285,-0.041,0.032,250.130,-250.137,116.107
-0.143,-0.024,-0.472,250.130,-250.137,77.519
0.016,0.049,-1.042,250.130,-250.137,42.145
0.141,0.152,-1.604,250.130,-250.137,18.466
0.231,0.141,-2.000,250.130,-177.939,7.977
0.153,0.244,-2.000,250.130,-67.802,8.595
0.086,0.317,-2.000,250.130,-5.534,10.260
0.077,0.367,-2.000,224.947,28.954,10.076
0.027,0.369,-2.000,115.267,36.763,4.275
-0.025,0.341,-2.000,-2.191,27.832,-10.603
-0.041,0.282,-1.927,-97.160,21.588,-29.267
-0.042,0.245,-1.707,-159.824,30.282,-43.336
-0.062,0.229,-1.483,-197.634,48.000,-52.237
-0.113,0.214,-1.231,-212.206,68.282,-55.985
-0.143,0.235,-1.024,-210.374,86.824,-56.878
-0.179,0.272,-0.863,-196.893,98.092,-54.863
-0.219,0.317,-0.713,-176.832,98.092,-49.969
-0.223,0.393,-0.615,-152.267,87.771,-41.389
-0.239,0.445,-0.558,-126.382,68.145,-29.962
-0.224,0.517,-0.525,-101.389,42.710,-15.939
-0.172,0.605,-0.550,-80.344,22.931,-1.924
-0.124,0.660,-0.595,-63.321,15.053,10.427
-0.065,0.737,-0.622,-54.137,12.053,20.008
-0.021,0.810,-0.651,-54.153,7.221,27.389
0.033,0.876,-0.670,-61.160,4.053,32.641
0.086,0.929,-0.687,-75.000,3.328,36.527
0.123,0.949,-0.695,-94.252,5.038,38.763
0.162,0.970,-0.690,-111.275,8.191,39.595
0.184,0.963,-0.678,-129.244,14.145,39.916
0.209,0.955,-0.656,-146.901,24.221,38.725
0.228,0.944,-0.619,-162.550,36.443,35.985
0.217,0.922,-0.565,-176.802,50.496,31.122
0.223,0.893,-0.527,-188.802,62.878,25.107
0.218,0.865,-0.446,-199.740,72.992,18.641
0.215,0.837,-0.385,-207.481,78.962,13.130
0.202,0.822,-0.349,-213.420,80.908,7.794
0.178,0.823,-0.284,-217.985,80.466,1.893
0.156,0.811,-0.245,-222.008,77.565,-4.137
0.142,0.817,-0.187,-225.260,69.664,-9.298
0.142,0.833,-0.148,-226.969,62.305,-12.779
0.125,0.842,-0.113,-225.931,60.115,-16.221
0.134,0.856,-0.082,-222.802,63.305,-19.656
0.124,0.863,-0.036,-218.244,71.000,-23.771
0.095,0.858,0.013,-213.786,76.664,-29.183
0.100,0.882,0.044,-209.214,82.695,-33.885
0.074,0.873,0.087,-204.527,89.137,-38.092
0.056,0.885,0.143,-199.412,93.802,-42.656
0.043,0.892,0.191,-195.443,93.595,-45.130
0.026,0.884,0.232,-192.023,93.427,-46.611
0.007,0.896,0.266,-187.855,90.420,-47.137
-0.011,0.896,0.322,-183.481,83.702,-46.855
-0.024,0.898,0.367,-177.733,75.641,-45.580
-0.016,0.886,0.387,-170.908,68.321,-42.924
-0.026,0.882,0.411,-162.962,63.710,-40.580
-0.030,0.884,0.467,-154.244,61.092,-38.115
-0.059,0.870,0.503,-146.504,57.664,-35.855
-0.060,0.873,0.523,-137.817,55.740,-33.534
-0.070,0.867,0.566,-128.443,53.969,-30.603
-0.071,0.874,0.578,-119.420,50.336,-27.145
-0.068,0.880,0.604,-107.031,45.672,-22.931
-0.062,0.873,0.640,-93.550,40.496,-17.885
-0.069,0.860,0.668,-79.321,35.504,-13.656
-0.085,0.851,0.697,-67.550,26.634,-10.321
-0.080,0.847,0.701,-55.305,16.290,-7.443
-0.083,0.837,0.691,-44.962,9.260,-6.229
-0.079,0.848,0.694,-34.443,3.427,-5.962
-0.075,0.845,0.686,-24.481,-1.313,-5.771
-0.067,0.847,0.663,-13.763,-5.489,-4.450
-0.063,0.843,0.651,-4.542,-7.519,-3.466
-0.057,0.852,0.622,3.183,-7.855,-2.298
-0.049,0.846,0.591,8.885,-6.099,-1.740
-0.051,0.847,0.575,13.481,-5.733,-1.107
-0.056,0.849,0.558,17.053,-6.786,-0.740
-0.042,0.851,0.546,20.046,-7.626,-0.550
-0.052,0.849,0.520,22.290,-9.359,-0.740
-0.047,0.847,0.494,23.702,-11.969,-0.534
-0.044,0.839,0.457,24.618,-14.008,-1.015
-0.041,0.855,0.450,24.588,-13.954,-1.351
-0.027,0.863,0.427,23.809,-13.229,-1.969
-0.026,0.860,0.408,22.466,-11.153,-2.229
-0.037,0.864,0.395,20.435,-8.550,-2.267
-0.033,0.872,0.390,17.344,-7.412,-2.656
-0.038,0.874,0.371,14.580,-6.229,-2.985
-0.039,0.870,0.359,11.099,-4.916,-3.160
-0.042,0.877,0.360,7.863,-3.565,-3.412
-0.046,0.878,0.357,4.908,-1.450,-3.450
-0.043,0.875,0.356,2.229,1.328,-3.000
-0.043,0.883,0.358,-0.771,4.282,-2.031
-0.048,0.878,0.361,-2.916,6.511,-1.519
-0.048,0.874,0.370,-4.649,7.237,-0.679
-0.045,0.876,0.385,-5.542,7.130,-0.092
-0.041,0.874,0.393,-5.725,7.527,0.832
-0.042,0.875,0.396,-6.145,7.031,0.817
-0.034,0.868,0.409,-6.183,6.420,0.916
-0.032,0.868,0.412,-6.214,4.718,0.397
-0.032,0.866,0.422,-6.107,4.183,0.542
-0.029,0.867,0.422,-6.076,4.321,0.130
-0.033,0.867,0.432,-6.260,5.672,-0.206
-0.033,0.871,0.428,-5.870,6.695,-0.679
-0.033,0.866,0.442,-4.710,6.893,-1.153
-0.041,0.867,0.445,-3.382,7.145,-0.305
-0.030,0.870,0.452,-1.550,7.534,0.710
-0.041,0.871,0.451,-0.336,6.229,1.733
-0.038,0.873,0.438,0.527,2.595,2.473
-0.027,0.864,0.455,1.534,-0.603,2.985
-0.019,0.863,0.438,2.756,-3.389,3.122
-0.019,0.864,0.436,3.893,-4.496,2.992
-0.010,0.855,0.413,4.718,-4.008,2.252

-0.068,0.950,0.796,33.870,43.466,17.794
-0.110,0.906,0.879,48.840,42.672,21.061
-0.201,0.800,1.022,70.321,30.221,24.573
-0.193,0.880,1.128,103.275,10.794,29.473
-0.264,0.776,1.207,147.092,-16.748,34.771
-0.243,0.775,1.250,200.656,-39.718,43.763
-0.254,0.723,1.248,250.130,-65.435,56.382
-0.253,0.670,1.168,250.130,-95.695,71.168
-0.230,0.597,1.048,250.130,-117.031,86.069
-0.192,0.541,0.903,250.130,-134.115,97.527
-0.159,0.479,0.709,250.130,-150.282,106.305
-0.133,0.383,0.498,250.130,-174.779,111.481
-0.113,0.269,0.259,250.130,-201.511,109.908
-0.101,0.191,0.013,250.130,-234.817,101.191
-0.102,0.117,-0.254,250.130,-250.137,85.122
-0.071,0.104,-0.501,250.130,-250.137,66.664
-0.025,0.108,-0.810,250.130,-250.137,41.878
0.059,0.178,-1.183,250.130,-250.137,22.122
0.093,0.202,-1.550,250.130,-250.137,2.840
0.104,0.237,-1.827,250.130,-190.374,-10.069
0.104,0.311,-2.000,250.130,-97.519,-14.672
0.073,0.373,-2.000,250.130,-20.252,-15.313
0.005,0.336,-2.000,187.885,23.489,-15.359
-0.046,0.352,-2.000,92.366,37.511,-17.710
-0.073,0.417,-2.000,-14.901,32.977,-24.389
-0.107,0.364,-1.907,-111.679,17.702,-34.740
-0.129,0.316,-1.712,-187.214,8.618,-44.229
-0.111,0.302,-1.544,-239.099,13.252,-49.595
-0.128,0.296,-1.351,-250.137,30.931,-51.985
-0.114,0.307,-1.208,-250.137,49.664,-49.573
-0.138,0.335,-0.997,-250.137,65.878,-44.847
-0.106,0.383,-0.865,-250.137,83.290,-38.863
-0.102,0.405,-0.767,-250.137,102.550,-33.267
-0.110,0.445,-0.651,-231.573,114.809,-27.725
-0.104,0.514,-0.543,-208.405,113.511,-22.641
-0.100,0.592,-0.453,-191.061,101.977,-17.779
-0.072,0.677,-0.409,-176.153,83.626,-12.405
-0.052,0.761,-0.379,-164.855,67.748,-8.069
-0.029,0.826,-0.362,-157.649,59.137,-4.863
-0.009,0.898,-0.330,-156.084,52.779,-1.908
0.010,0.945,-0.310,-160.023,47.275,1.748
0.025,0.969,-0.291,-165.435,44.305,5.351
0.041,0.983,-0.271,-172.260,45.328,8.725
0.057,0.981,-0.251,-179.145,48.947,12.176
0.072,0.971,-0.228,-184.672,52.977,13.954
0.067,0.960,-0.175,-189.878,54.580,14.634
0.075,0.935,-0.126,-194.702,54.069,15.290
0.078,0.918,-0.091,-197.885,52.244,14.504
0.083,0.924,-0.076,-199.580,49.901,12.786
0.094,0.905,-0.037,-199.542,48.511,10.130
0.091,0.906,-0.002,-198.664,47.061,6.679
0.090,0.908,0.026,-196.489,47.092,3.405
0.085,0.896,0.063,-193.649,49.107,-0.351
0.081,0.913,0.082,-191.237,46.481,-4.580
0.106,0.918,0.099,-187.420,51.053,-8.748
0.093,0.903,0.129,-182.679,57.695,-12.832
0.076,0.902,0.186,-178.580,65.679,-17.565
0.067,0.923,0.204,-175.489,71.099,-22.397
0.051,0.925,0.251,-170.786,76.542,-26.672
0.055,0.917,0.267,-164.733,82.389,-29.397
0.042,0.917,0.295,-156.664,86.786,-31.603
0.015,0.920,0.359,-146.672,86.061,-32.664
0.003,0.897,0.397,-135.969,80.779,-31.634
-0.027,0.895,0.440,-126.420,69.458,-29.733
-0.042,0.891,0.464,-118.237,58.115,-28.504
-0.051,0.896,0.492,-111.985,49.237,-27.969
-0.054,0.890,0.513,-106.244,41.160,-26.656
-0.055,0.906,0.513,-98.718,33.374,-24.786
-0.037,0.917,0.521,-93.725,27.603,-21.382
-0.042,0.897,0.545,-83.954,22.313,-17.504
-0.036,0.887,0.541,-74.962,18.893,-14.351
-0.045,0.888,0.548,-66.290,15.580,-11.840
-0.045,0.876,0.535,-58.794,12.534,-10.130
-0.041,0.868,0.548,-52.435,10.809,-9.260
-0.041,0.876,0.538,-47.542,9.176,-9.275
-0.035,0.873,0.537,-42.519,8.473,-8.931
-0.034,0.869,0.523,-37.870,9.344,-8.878
-0.030,0.870,0.523,-34.130,10.840,-9.084
-0.037,0.873,0.520,-30.649,12.107,-9.397
-0.037,0.862,0.516,-27.069,14.115,-9.344
-0.043,0.858,0.520,-23.534,14.443,-9.336
-0.057,0.865,0.519,-20.244,13.137,-9.557
-0.059,0.856,0.518,-17.130,11.008,-10.313
-0.073,0.860,0.510,-14.481,9.015,-11.412
-0.070,0.852,0.520,-11.962,7.290,-12.023
-0.075,0.857,0.500,-9.565,5.290,-11.863
-0.074,0.862,0.491,-7.427,5.244,-11.313
-0.088,0.867,0.481,-4.756,4.275,-10.374
-0.093,0.862,0.475,-2.901,3.214,-9.115
-0.086,0.856,0.468,-0.824,2.290,-7.824
-0.090,0.866,0.461,0.863,1.908,-6.053
-0.087,0.862,0.453,1.924,2.053,-4.481
-0.091,0.864,0.444,2.321,1.168,-3.397
-0.089,0.859,0.444,3.069,-0.153,-2.321
-0.079,0.861,0.435,3.511,-0.229,-1.137
-0.083,0.866,0.431,3.427,0.656,-0.359
-0.075,0.865,0.418,2.771,2.183,0.298
-0.077,0.868,0.412,1.924,1.802,0.534
-0.074,0.860,0.410,1.573,3.359,0.885
-0.065,0.867,0.416,1.267,4.527,0.817
-0.066,0.861,0.415,1.244,5.069,0.565
-0.065,0.865,0.405,0.405,4.626,0.985
-0.070,0.863,0.407,-0.504,2.947,0.840
-0.065,0.865,0.412,-1.076,1.603,1.023
-0.060,0.860,0.408,-1.954,2.473,1.412
-0.064,0.863,0.412,-2.519,3.092,1.496
-0.056,0.861,0.409,-2.916,3.840,1.908
-0.058,0.856,0.421,-3.809,5.695,2.397
-0.052,0.865,0.427,-4.168,7.618,1.939
-0.047,0.858,0.422,-4.603,8.695,1.809
-0.049,0.856,0.428,-4.679,8.847,2.458
-0.052,0.861,0.437,-4.679,7.519,2.252
-0.048,0.851,0.438,-4.328,6.458,2.115
-0.056,0.853,0.449,-3.824,4.542,1.809
-0.045,0.845,0.448,-3.023,3.412,1.321
-0.049,0.856,0.442,-2.450,2.817,0.855
-0.036,0.849,0.441,-2.229,2.733,0.290
-0.044,0.851,0.446,-2.084,3.511,-0.542
-0.041,0.854,0.435,-1.664,4.702,-1.397

-0.149,0.885,0.797,59.374,18.214,17.405
-0.197,0.849,0.880,83.260,10.305,21.870
-0.216,0.878,0.982,106.748,-1.435,26.947
-0.229,0.890,1.083,134.664,-14.840,36.229
-0.277,0.863,1.146,171.145,-24.794,47.740
-0.335,0.842,1.189,214.366,-27.992,63.641
-0.358,0.828,1.226,250.130,-29.771,84.092
-0.396,0.812,1.243,250.130,-43.450,110.832
-0.370,0.724,1.193,250.130,-59.275,136.626
-0.349,0.638,1.094,250.130,-83.191,162.214
-0.303,0.524,0.927,250.130,-117.733,179.802
-0.233,0.411,0.677,250.130,-156.015,188.061
-0.144,0.282,0.417,250.130,-187.954,187.855
-0.044,0.171,0.131,250.130,-216.183,182.290
0.002,0.057,-0.151,250.130,-246.725,170.542
0.038,-0.055,-0.467,250.130,-250.137,148.412
0.149,-0.056,-0.831,250.130,-250.137,118.847
0.166,-0.043,-1.115,250.130,-250.137,91.084
0.238,-0.140,-1.391,250.130,-250.137,71.435
0.138,-0.000,-1.614,250.130,-250.137,57.275
0.376,0.059,-2.000,250.130,-150.092,38.389
0.398,0.178,-2.000,250.130,7.275,18.191
0.322,0.177,-2.000,250.130,108.328,7.145
0.203,0.149,-2.000,148.443,122.351,-1.237
0.123,0.210,-1.946,36.595,78.977,-15.779
0.092,0.279,-1.722,-78.794,16.634,-37.977
0.069,0.245,-1.588,-163.405,-21.626,-57.313
0.037,0.243,-1.467,-228.573,-33.000,-74.382
0.055,0.261,-1.337,-250.137,-17.496,-83.756
0.061,0.278,-1.215,-250.137,15.206,-87.641
0.034,0.286,-1.048,-250.137,43.489,-84.153
0.044,0.349,-0.927,-250.137,65.725,-75.763
0.048,0.391,-0.825,-248.504,84.214,-63.107
0.025,0.435,-0.689,-226.489,97.374,-52.145
0.019,0.482,-0.621,-206.702,101.260,-42.824
0.023,0.560,-0.541,-187.053,96.802,-33.779
0.040,0.630,-0.492,-172.229,85.267,-25.901
0.038,0.704,-0.463,-161.687,65.763,-19.198
0.061,0.785,-0.434,-158.282,41.763,-14.344
0.094,0.828,-0.449,-159.695,23.840,-11.160
0.120,0.871,-0.458,-163.092,15.046,-8.992
0.147,0.893,-0.458,-169.214,11.931,-6.366
0.163,0.912,-0.469,-175.817,12.618,-4.183
0.197,0.933,-0.450,-183.725,25.145,-2.420
0.197,0.926,-0.407,-189.198,45.466,-2.122
0.186,0.911,-0.360,-194.489,63.435,-3.969
0.169,0.886,-0.300,-198.702,70.733,-6.092
0.171,0.889,-0.259,-202.366,74.679,-9.092
0.155,0.885,-0.196,-205.519,77.153,-13.695
0.143,0.872,-0.160,-208.282,75.878,-19.863
0.140,0.877,-0.140,-209.015,75.237,-26.985
0.114,0.880,-0.073,-208.679,74.534,-33.061
0.077,0.887,-0.030,-208.092,74.092,-37.855
0.069,0.900,0.003,-206.924,70.954,-40.718
0.045,0.903,0.049,-205.840,64.382,-43.473
0.028,0.912,0.084,-205.496,57.115,-43.916
0.056,0.938,0.114,-204.252,54.344,-42.840
0.080,0.950,0.145,-201.000,62.061,-40.832
0.058,0.923,0.173,-195.870,73.603,-39.191
0.051,0.927,0.226,-190.389,81.832,-38.313
0.025,0.914,0.294,-183.176,87.374,-37.321
0.011,0.895,0.364,-175.618,90.427,-35.443
0.001,0.888,0.399,-165.649,89.496,-32.977
-0.003,0.882,0.432,-152.672,85.679,-31.053
-0.023,0.876,0.469,-137.748,77.313,-28.885
-0.029,0.878,0.529,-123.038,65.916,-25.580
-0.048,0.874,0.565,-108.565,50.672,-21.733
-0.047,0.872,0.591,-96.443,36.420,-19.130
-0.053,0.884,0.594,-84.817,23.641,-16.031
-0.050,0.882,0.598,-74.832,11.130,-13.031
-0.035,0.885,0.593,-66.832,2.382,-10.466
-0.023,0.881,0.577,-58.786,-3.443,-8.191
-0.013,0.888,0.555,-51.122,-6.397,-6.481
-0.011,0.861,0.546,-45.038,-8.466,-5.427
0.026,0.884,0.510,-39.122,-6.328,-5.466
0.030,0.870,0.516,-32.496,0.229,-5.878
0.022,0.859,0.516,-26.718,6.779,-7.878
0.011,0.863,0.515,-22.427,7.786,-10.153
-0.002,0.868,0.516,-19.626,6.702,-12.702
-0.009,0.860,0.525,-17.015,5.427,-14.977
-0.015,0.861,0.515,-14.496,3.824,-16.427
-0.022,0.864,0.509,-11.992,1.954,-17.008
-0.027,0.865,0.506,-9.321,1.153,-16.412
-0.027,0.858,0.492,-6.443,1.824,-15.748
-0.020,0.862,0.481,-3.603,3.809,-14.992
-0.029,0.865,0.463,-0.771,7.313,-14.481
-0.039,0.864,0.464,1.313,9.389,-14.786
-0.062,0.862,0.473,2.573,8.038,-15.260
-0.070,0.865,0.469,3.687,4.985,-14.641
-0.068,0.872,0.456,4.695,2.206,-13.137
-0.072,0.879,0.449,4.855,0.130,-11.511
-0.075,0.876,0.438,5.130,-1.321,-9.977
-0.061,0.876,0.432,4.855,-1.206,-8.519
-0.063,0.868,0.425,4.534,-0.214,-7.069
-0.054,0.884,0.411,3.832,0.817,-5.588
-0.055,0.880,0.411,3.275,1.328,-4.656
-0.059,0.869,0.416,2.275,2.977,-4.038
-0.061,0.873,0.404,1.267,3.450,-3.763
-0.057,0.880,0.413,1.008,2.191,-3.038
-0.065,0.870,0.406,1.038,2.779,-2.206
-0.055,0.880,0.403,1.153,2.481,-1.412
-0.052,0.875,0.415,0.649,1.832,-0.397
-0.051,0.873,0.406,-0.076,1.237,0.450
-0.047,0.868,0.406,-0.763,1.832,1.046
-0.038,0.864,0.411,-1.153,2.985,1.580
-0.031,0.866,0.412,-1.832,5.191,1.244
-0.038,0.872,0.412,-2.328,7.176,0.573
-0.034,0.871,0.414,-2.733,7.336,-0.221
-0.035,0.869,0.423,-2.885,7.053,-0.466
-0.034,0.868,0.425,-2.855,6.580,-0.160
-0.035,0.868,0.428,-2.603,6.260,0.130
-0.035,0.860,0.423,-2.107,4.527,0.489
-0.036,0.866,0.431,-1.496,3.107,0.611
-0.034,0.861,0.432,-0.924,2.458,0.901
-0.025,0.869,0.424,-0.244,2.374,1.336
-0.029,0.868,0.437,-0.015,2.313,1.031
-0.025,0.860,0.426,0.374,3.107,0.191
-0.026,0.871,0.436,0.840,3.481,-0.809
-0.024,0.867,0.444,1.198,4.313,-1.038

-0.125,0.902,0.925,38.351,76.237,-1.038
-0.128,0.921,0.918,57.000,71.786,1.290
-0.212,0.833,1.051,84.695,62.679,3.947
-0.280,0.826,1.148,118.870,41.779,8.450
-0.337,0.817,1.212,158.534,15.206,15.947
-0.333,0.813,1.224,201.802,-9.901,26.565
-0.313,0.817,1.191,249.389,-29.573,42.260
-0.316,0.767,1.109,250.130,-49.168,62.115
-0.322,0.684,1.012,250.130,-67.305,79.893
-0.287,0.619,0.853,250.130,-85.153,96.290
-0.259,0.555,0.669,250.130,-101.466,108.412
-0.237,0.464,0.491,250.130,-124.534,116.191
-0.201,0.406,0.297,250.130,-154.641,116.275
-0.163,0.341,0.088,250.130,-184.931,110.031
-0.135,0.231,-0.143,250.130,-220.244,98.275
-0.086,0.175,-0.438,250.130,-249.985,81.992
-0.033,0.154,-0.681,250.130,-250.137,65.695
0.016,0.135,-0.918,250.130,-250.137,49.443
0.023,0.131,-1.123,250.130,-244.000,32.733
0.053,0.091,-1.381,250.130,-207.740,19.305
0.096,0.164,-1.722,250.130,-143.954,8.573
0.104,0.184,-1.911,250.130,-60.176,2.664
0.051,0.201,-1.969,250.130,15.351,2.527
0.028,0.230,-2.000,237.427,62.435,2.710
-0.021,0.276,-1.939,138.550,69.260,-2.481
-0.090,0.258,-1.829,34.069,40.550,-15.053
-0.111,0.246,-1.707,-60.061,4.931,-31.947
-0.107,0.229,-1.622,-127.214,-11.656,-43.366
-0.079,0.233,-1.497,-177.000,-11.863,-49.954
-0.094,0.240,-1.355,-210.496,-0.565,-50.855
-0.110,0.218,-1.237,-231.015,5.458,-47.519
-0.104,0.265,-1.109,-241.603,10.435,-41.557
-0.086,0.301,-1.003,-239.695,19.359,-33.916
-0.077,0.339,-0.901,-227.527,33.733,-24.168
-0.060,0.392,-0.822,-208.435,49.206,-15.420
-0.042,0.446,-0.743,-186.878,57.931,-6.809
-0.055,0.528,-0.643,-168.481,56.626,0.626
-0.042,0.613,-0.583,-155.496,50.000,5.168
-0.022,0.686,-0.561,-146.718,41.511,7.412
-0.005,0.765,-0.535,-141.809,35.321,7.695
0.010,0.826,-0.529,-140.496,32.252,6.908
0.033,0.890,-0.514,-141.832,33.427,6.603
0.038,0.927,-0.502,-145.855,35.901,6.725
0.039,0.945,-0.459,-151.557,34.282,8.817
0.040,0.963,-0.421,-157.344,30.443,11.336
0.052,0.981,-0.387,-163.351,27.053,13.832
0.054,0.968,-0.363,-168.687,25.366,15.595
0.063,0.965,-0.337,-171.649,27.794,16.947
0.071,0.945,-0.306,-170.992,34.435,17.985
0.074,0.928,-0.281,-167.771,38.924,17.962
0.061,0.913,-0.243,-162.954,40.092,16.969
0.072,0.902,-0.229,-157.344,38.344,15.565
0.065,0.896,-0.186,-151.366,34.122,12.931
0.075,0.905,-0.182,-144.969,29.382,9.908
0.061,0.908,-0.139,-139.168,22.534,6.672
0.078,0.925,-0.122,-135.229,16.023,3.771
0.076,0.941,-0.125,-131.580,14.847,-0.046
0.072,0.972,-0.106,-128.824,18.695,-4.359
0.072,0.995,-0.088,-126.298,24.275,-7.832
0.064,0.991,-0.071,-123.420,29.847,-10.260
0.070,0.995,-0.065,-119.763,34.794,-10.679
0.063,1.003,-0.037,-115.725,39.786,-10.511
0.047,0.990,0.000,-112.000,43.885,-9.176
0.060,0.998,0.019,-108.695,45.672,-7.496
0.066,0.993,0.032,-105.038,45.580,-5.160
0.064,0.971,0.065,-102.252,43.710,-3.214
0.061,0.983,0.092,-100.901,39.985,-2.435
0.053,0.973,0.130,-100.000,32.840,-2.519
0.059,0.989,0.135,-100.015,25.534,-3.496
0.069,0.990,0.139,-96.122,25.969,-3.542
0.079,0.990,0.139,-95.107,29.069,-2.969
0.065,0.981,0.170,-89.443,29.405,-1.313
0.073,0.971,0.167,-84.863,28.908,0.069
0.085,0.973,0.185,-79.534,29.137,1.366
0.088,0.973,0.200,-74.901,29.198,1.695
0.088,0.964,0.225,-70.969,28.397,1.130
0.082,0.958,0.238,-67.672,26.588,-0.534
0.074,0.957,0.240,-64.855,23.817,-3.626
0.074,0.950,0.256,-61.382,20.023,-6.763
0.069,0.946,0.248,-57.366,17.069,-9.115
0.047,0.921,0.277,-53.305,11.076,-11.130
0.068,0.956,0.250,-49.328,6.511,-12.450
0.069,0.952,0.242,-44.198,9.031,-13.237
0.070,0.950,0.242,-39.809,14.534,-13.954
0.048,0.958,0.256,-37.527,16.374,-14.168
0.042,0.968,0.260,-36.985,17.092,-15.275
0.019,0.973,0.265,-37.954,17.863,-16.626
0.009,0.972,0.273,-38.809,18.725,-18.130
0.004,0.967,0.271,-39.229,19.458,-18.061
-0.007,0.969,0.275,-38.397,19.878,-16.969
-0.010,0.967,0.290,-36.954,19.718,-15.099
-0.013,0.954,0.289,-34.962,19.473,-12.656
-0.016,0.954,0.296,-32.893,19.115,-10.145
-0.017,0.953,0.302,-31.069,18.427,-8.511
-0.022,0.945,0.305,-29.275,17.137,-6.725
-0.025,0.956,0.316,-28.511,16.427,-6.031
-0.029,0.949,0.314,-27.527,16.527,-5.679
-0.023,0.955,0.318,-25.893,15.947,-5.695
-0.022,0.948,0.322,-23.763,15.748,-4.695
-0.020,0.944,0.327,-21.359,15.939,-3.931
-0.031,0.942,0.344,-19.084,15.908,-3.313
-0.023,0.945,0.343,-17.145,15.656,-2.809
-0.021,0.948,0.341,-15.344,15.069,-2.099
-0.018,0.943,0.338,-13.450,14.076,-1.023
-0.016,0.937,0.339,-11.603,12.267,0.145
-0.016,0.935,0.342,-10.122,10.198,0.725
-0.017,0.933,0.342,-8.863,7.870,1.122
-0.010,0.930,0.339,-7.137,6.107,1.977
-0.004,0.925,0.321,-5.412,5.176,2.519
0.001,0.925,0.319,-3.588,3.565,2.985
0.003,0.924,0.324,-2.176,3.244,3.107
0.006,0.923,0.317,-1.061,3.137,2.931
0.006,0.931,0.309,-0.466,3.466,2.725
0.013,0.926,0.309,-0.336,3.580,2.443
0.018,0.923,0.306,0.130,2.733,2.046
0.023,0.924,0.299,-0.191,2.420,2.053
0.023,0.924,0.302,-0.008,1.748,1.756
0.031,0.919,0.287,-0.389,1.160,1.374
0.025,0.924,0.300,-0.710,1.107,0.748

-0.091,0.973,0.789,55.679,40.679,21.710
-0.077,0.945,0.825,76.275,39.198,27.397
-0.137,0.907,0.927,102.519,31.809,33.718
-0.151,0.903,1.013,139.252,13.260,42.489
-0.190,0.844,1.082,177.931,-5.710,51.160
-0.216,0.812,1.140,225.847,-28.481,61.740
-0.244,0.769,1.135,250.130,-52.908,72.832
-0.259,0.681,1.063,250.130,-83.412,85.420
-0.244,0.578,0.898,250.130,-115.588,98.321
-0.197,0.497,0.642,250.130,-143.809,108.267
-0.137,0.443,0.389,250.130,-166.550,114.374
-0.101,0.356,0.120,250.130,-192.000,116.725
-0.057,0.293,-0.143,250.130,-219.840,114.023
-0.012,0.251,-0.457,250.130,-244.107,106.160
0.040,0.198,-0.756,250.130,-240.107,90.542
0.101,0.229,-1.127,250.130,-206.260,73.771
0.157,0.208,-1.423,250.130,-156.115,62.115
0.187,0.254,-1.627,250.130,-94.427,53.634
0.199,0.245,-1.740,250.130,-37.260,48.000
0.231,0.281,-1.832,250.130,8.298,44.672
0.233,0.344,-1.885,250.130,36.168,39.702
0.164,0.333,-1.826,159.282,31.382,27.595
0.125,0.328,-1.750,66.489,6.519,10.786
0.107,0.319,-1.693,-26.595,-20.916,-11.977
0.107,0.317,-1.596,-101.336,-30.336,-33.504
0.076,0.299,-1.454,-157.809,-25.954,-50.282
0.038,0.287,-1.310,-194.878,-15.847,-61.290
-0.018,0.282,-1.152,-217.863,-10.573,-67.702
-0.012,0.326,-1.067,-228.389,-7.679,-68.885
-0.020,0.364,-0.948,-231.595,-4.031,-66.374
-0.005,0.407,-0.903,-226.908,3.397,-60.794
0.014,0.437,-0.854,-215.397,16.901,-53.809
0.005,0.467,-0.786,-197.298,31.954,-44.267
0.005,0.537,-0.700,-177.817,41.870,-35.977
0.003,0.591,-0.636,-161.412,44.229,-28.015
0.011,0.644,-0.600,-147.725,41.924,-20.504
0.023,0.718,-0.562,-137.496,39.107,-13.656
0.053,0.796,-0.536,-133.000,37.641,-8.855
0.058,0.849,-0.521,-132.435,36.748,-6.038
0.058,0.893,-0.502,-135.656,34.771,-4.496
0.067,0.934,-0.477,-141.382,32.847,-2.992
0.082,0.965,-0.459,-149.481,29.969,-1.122
0.091,0.972,-0.434,-159.389,24.649,2.061
0.123,0.972,-0.425,-165.893,26.847,6.290
0.125,0.945,-0.377,-168.252,35.977,9.420
0.110,0.922,-0.338,-167.618,45.473,10.672
0.121,0.912,-0.287,-165.893,50.947,10.305
0.112,0.898,-0.236,-163.282,52.389,8.122
0.091,0.897,-0.193,-159.733,50.260,4.695
0.100,0.902,-0.163,-154.702,46.931,0.198
0.101,0.913,-0.138,-149.954,44.496,-3.649
0.107,0.935,-0.114,-144.305,42.183,-6.786
0.103,0.932,-0.104,-137.611,41.008,-9.893
0.091,0.930,-0.078,-130.878,38.901,-13.137
0.102,0.958,-0.058,-123.992,38.191,-15.916
0.092,0.964,-0.037,-117.099,38.229,-17.962
0.086,0.974,-0.014,-111.374,38.061,-20.176
0.080,0.980,-0.001,-106.115,36.603,-21.603
0.080,0.979,0.003,-101.427,33.351,-21.924
0.067,0.983,0.021,-98.061,31.115,-21.748
0.073,0.979,0.017,-91.573,31.122,-21.313
0.060,0.988,0.037,-88.893,29.221,-20.015
0.060,0.988,0.044,-85.542,25.870,-17.313
0.054,0.985,0.050,-83.519,24.122,-14.908
0.056,0.996,0.065,-82.008,23.321,-13.084
0.052,0.998,0.077,-80.344,23.359,-11.053
0.055,0.997,0.081,-78.038,24.122,-9.084
0.057,0.996,0.106,-75.511,24.870,-7.450
0.051,0.978,0.124,-74.092,22.542,-6.351
0.056,0.989,0.129,-73.046,18.534,-5.756
0.060,0.986,0.121,-72.374,18.405,-6.328
0.063,0.986,0.133,-71.855,20.763,-7.229
0.067,0.988,0.144,-71.374,22.267,-8.000
0.054,0.976,0.152,-71.382,20.145,-8.672
0.042,0.970,0.162,-71.733,17.489,-9.511
0.053,0.968,0.154,-71.603,17.573,-10.191
0.051,0.966,0.171,-70.603,20.344,-10.519
0.054,0.965,0.176,-68.832,24.985,-11.336
0.062,0.967,0.193,-66.275,29.321,-12.092
0.037,0.957,0.216,-63.504,31.137,-13.344
0.030,0.955,0.228,-60.817,32.023,-15.046
0.018,0.957,0.246,-59.031,31.084,-15.962
0.006,0.956,0.255,-57.740,29.267,-16.794
0.014,0.954,0.240,-56.992,27.191,-17.405
-0.003,0.947,0.264,-58.137,22.763,-17.618
-0.012,0.959,0.259,-59.099,19.863,-18.023
-0.009,0.957,0.272,-58.969,18.962,-18.267
-0.012,0.948,0.275,-58.214,20.885,-17.779
-0.012,0.950,0.284,-56.824,23.832,-17.290
-0.019,0.943,0.299,-55.145,26.618,-16.382
-0.025,0.942,0.320,-53.458,27.511,-15.611
-0.026,0.948,0.337,-51.221,29.710,-14.511
-0.036,0.940,0.342,-48.305,30.008,-13.313
-0.044,0.919,0.346,-45.344,28.282,-11.756
-0.049,0.926,0.360,-42.176,24.305,-10.863
-0.059,0.925,0.377,-38.718,18.634,-10.061
-0.052,0.917,0.373,-35.031,13.237,-8.603
-0.050,0.920,0.383,-32.366,7.916,-7.023
-0.038,0.919,0.368,-29.069,7.115,-6.023
-0.045,0.923,0.363,-25.710,8.870,-5.542
-0.040,0.917,0.377,-22.672,11.580,-5.198
-0.042,0.920,0.379,-20.550,12.130,-4.939
-0.046,0.917,0.391,-18.969,11.641,-4.076
-0.045,0.925,0.395,-16.824,9.504,-3.588
-0.047,0.910,0.394,-13.634,7.687,-2.969
-0.042,0.905,0.393,-10.985,5.985,-2.504
-0.042,0.907,0.392,-9.000,5.069,-2.435
-0.046,0.908,0.396,-7.885,4.153,-2.427
-0.038,0.910,0.401,-7.328,4.046,-2.344
-0.035,0.910,0.395,-6.977,5.466,-2.244
-0.037,0.915,0.394,-6.931,6.695,-2.458
-0.035,0.912,0.397,-6.870,7.588,-2.015
-0.037,0.906,0.393,-6.405,7.321,-1.305
-0.041,0.914,0.397,-5.794,7.160,-0.809
-0.036,0.909,0.393,-5.008,7.099,-0.389
-0.039,0.896,0.383,-4.115,6.901,-0.511
-0.035,0.898,0.377,-2.740,6.458,-0.656
-0.041,0.897,0.380,-1.023,4.580,-1.298
-0.038,0.898,0.376,0.336,2.015,-2.099

-0.082,0.980,0.786,7.885,65.206,0.084
-0.226,0.854,0.764,22.092,61.267,0.595
-0.148,0.962,0.960,40.847,66.229,4.115
-0.208,0.886,1.123,76.160,53.450,11.122
-0.336,0.810,1.258,131.443,17.763,20.191
-0.354,0.790,1.361,200.847,-33.504,32.420
-0.345,0.784,1.355,250.130,-59.771,46.015
-0.347,0.740,1.307,250.130,-75.015,60.191
-0.340,0.671,1.169,250.130,-97.023,79.084
-0.341,0.560,0.998,250.130,-127.733,96.702
-0.310,0.484,0.779,250.130,-156.198,108.122
-0.265,0.403,0.541,250.130,-184.580,112.725
-0.205,0.343,0.260,250.130,-206.702,110.344
-0.141,0.318,-0.018,250.130,-221.962,102.427
-0.088,0.287,-0.273,250.130,-232.550,90.511
-0.012,0.297,-0.599,250.130,-235.420,75.794
0.041,0.260,-0.954,250.130,-216.817,61.802
0.100,0.267,-1.222,250.130,-163.870,54.832
0.125,0.238,-1.467,250.130,-111.832,52.038
0.111,0.184,-1.648,250.130,-57.466,52.588
0.102,0.216,-1.757,250.130,-13.763,53.244
0.109,0.251,-1.814,250.130,19.450,52.794
0.117,0.288,-1.840,250.130,37.740,49.840
0.104,0.282,-1.806,166.992,38.924,42.527
0.083,0.289,-1.751,79.069,23.168,30.473
0.055,0.280,-1.680,-2.221,1.290,13.198
0.052,0.279,-1.603,-73.252,-15.794,-6.282
0.030,0.238,-1.492,-133.756,-20.496,-25.634
0.000,0.243,-1.368,-175.565,-17.870,-41.282
-0.007,0.262,-1.250,-200.634,-11.756,-51.878
-0.026,0.281,-1.140,-215.832,-4.924,-58.969
-0.035,0.307,-1.047,-223.947,0.557,-63.412
-0.031,0.349,-0.978,-224.489,6.099,-64.038
-0.011,0.402,-0.916,-220.115,15.611,-60.802
-0.001,0.466,-0.831,-211.519,29.863,-53.817
-0.011,0.517,-0.768,-201.206,42.786,-45.725
-0.024,0.570,-0.699,-191.176,50.305,-37.046
-0.021,0.649,-0.640,-182.557,53.191,-28.107
-0.026,0.733,-0.571,-175.748,52.053,-19.908
-0.017,0.780,-0.547,-170.832,51.626,-13.229
-0.013,0.840,-0.497,-168.328,51.817,-7.183
-0.019,0.906,-0.467,-169.282,52.366,-3.290
-0.015,0.938,-0.424,-172.817,50.656,0.702
-0.006,0.951,-0.377,-177.763,48.191,6.000
0.011,0.977,-0.352,-182.595,48.412,11.260
0.014,0.971,-0.310,-185.641,49.786,16.122
0.025,0.965,-0.271,-188.130,49.985,21.244
0.030,0.951,-0.222,-190.252,46.824,26.947
0.034,0.940,-0.183,-191.931,44.573,30.435
0.045,0.946,-0.158,-191.557,42.527,32.176
0.059,0.941,-0.124,-189.359,42.702,32.557
0.061,0.912,-0.078,-184.588,44.053,31.504
0.069,0.917,-0.043,-176.740,46.435,29.511
0.104,0.919,-0.037,-168.076,48.618,26.763
0.107,0.914,-0.018,-158.473,48.977,23.496
0.125,0.913,-0.000,-148.847,48.870,19.328
0.120,0.928,0.025,-137.847,47.336,13.870
0.124,0.930,0.048,-130.092,44.427,9.214
0.117,0.933,0.093,-122.992,45.084,4.214
0.135,0.949,0.094,-117.206,47.000,-0.183
0.132,0.965,0.119,-113.099,50.511,-3.702
0.128,0.969,0.143,-109.550,53.656,-6.702
0.111,0.971,0.167,-106.458,53.397,-8.527
0.120,0.965,0.181,-103.160,51.084,-9.145
0.107,0.961,0.196,-98.924,45.237,-7.672
0.098,0.955,0.218,-95.427,35.450,-5.672
0.105,0.953,0.237,-95.458,26.710,-3.214
0.112,0.946,0.242,-92.649,21.718,-1.443
0.122,0.950,0.246,-90.244,18.557,-0.328
0.119,0.952,0.263,-88.382,18.763,-0.061
0.122,0.945,0.271,-87.122,21.534,-0.618
0.114,0.943,0.288,-85.405,23.718,-1.107
0.117,0.933,0.298,-83.687,25.008,-1.008
0.119,0.936,0.303,-81.359,26.427,-0.969
0.117,0.929,0.303,-78.076,28.244,-0.985
0.127,0.920,0.300,-75.435,29.641,-1.290
0.121,0.909,0.305,-72.519,30.466,-1.901
0.117,0.907,0.325,-69.962,28.382,-3.763
0.118,0.898,0.333,-67.748,26.603,-5.588
0.105,0.900,0.347,-65.931,25.145,-8.817
0.092,0.909,0.363,-64.779,23.313,-12.229
0.085,0.899,0.380,-62.924,21.840,-14.809
0.092,0.892,0.387,-60.786,20.076,-16.573
0.080,0.885,0.390,-58.534,19.695,-16.931
0.082,0.879,0.402,-56.802,20.275,-17.748
0.075,0.886,0.388,-54.763,22.137,-18.939
0.079,0.875,0.393,-52.328,27.939,-20.618
0.078,0.876,0.409,-50.672,35.374,-22.115
0.054,0.881,0.418,-49.519,39.649,-24.168
0.033,0.876,0.455,-49.160,40.206,-25.611
0.026,0.873,0.449,-48.473,37.527,-26.588
0.020,0.871,0.469,-47.977,33.771,-26.893
-0.008,0.857,0.484,-47.550,29.214,-26.832
-0.015,0.877,0.483,-45.908,25.015,-26.824
-0.022,0.866,0.492,-43.504,25.588,-26.687
-0.031,0.867,0.504,-41.092,27.282,-25.679
-0.046,0.859,0.515,-38.000,27.947,-23.977
-0.064,0.863,0.524,-34.489,26.802,-22.038
-0.060,0.863,0.538,-29.870,26.084,-18.901
-0.062,0.856,0.551,-25.504,23.328,-15.687
-0.064,0.858,0.552,-21.023,18.947,-12.954
-0.071,0.851,0.561,-16.656,13.366,-10.214
-0.074,0.851,0.554,-11.863,8.275,-7.435
-0.072,0.851,0.544,-7.244,4.992,-5.183
-0.068,0.849,0.528,-3.550,4.176,-3.099
-0.071,0.856,0.532,-0.779,3.344,-2.038
-0.060,0.853,0.529,1.321,1.168,-0.893
-0.060,0.850,0.518,2.969,-0.076,0.679
-0.052,0.853,0.512,4.489,-1.244,1.992
-0.051,0.855,0.496,5.298,-2.427,2.985
-0.034,0.856,0.494,6.511,-3.382,3.634
-0.032,0.844,0.479,7.527,-3.588,3.962
-0.025,0.843,0.467,8.015,-3.550,4.008
-0.021,0.845,0.466,9.038,-3.443,3.901
-0.016,0.851,0.463,9.160,-2.634,3.351
-0.012,0.842,0.451,9.015,-2.542,2.466
-0.010,0.845,0.448,8.313,-2.641,1.756
-0.008,0.849,0.445,7.397,-2.489,1.366
-0.009,0.849,0.428,6.641,-1.427,0.542

-0.081,0.860,0.863,90.870,-0.626,17.427
-0.108,0.817,0.905,119.084,-14.122,19.977
-0.109,0.857,0.949,151.603,-29.634,23.985
-0.119,0.845,0.960,189.366,-47.092,29.840
-0.152,0.789,0.962,230.649,-67.893,36.214
-0.209,0.684,1.029,250.130,-93.679,42.099
-0.087,0.863,0.823,250.130,-108.206,49.412
-0.135,0.698,0.754,250.130,-117.214,55.252
-0.059,0.748,0.606,250.130,-116.046,58.550
-0.066,0.688,0.503,250.130,-123.290,59.679
-0.038,0.667,0.379,250.130,-133.519,58.366
-0.013,0.634,0.246,250.130,-139.160,54.634
0.010,0.628,0.106,250.130,-141.779,49.405
0.028,0.624,-0.040,250.130,-140.282,44.458
0.035,0.576,-0.214,250.130,-135.290,38.687
0.051,0.527,-0.380,250.130,-127.214,35.511
0.082,0.521,-0.546,250.130,-118.237,34.954
0.105,0.502,-0.743,250.130,-102.176,35.000
0.095,0.465,-0.908,250.130,-80.382,36.992
0.128,0.438,-1.115,250.130,-61.511,39.748
0.128,0.412,-1.252,250.130,-46.595,40.664
0.110,0.431,-1.410,250.130,-45.611,44.580
0.129,0.333,-1.522,250.130,-32.962,41.336
0.137,0.355,-1.556,207.282,-10.214,29.466
0.172,0.425,-1.531,153.901,2.947,20.420
0.144,0.406,-1.480,95.275,-1.565,13.847
0.089,0.387,-1.393,30.550,-13.427,4.275
0.077,0.416,-1.362,-25.427,-19.282,-8.542
0.078,0.412,-1.322,-65.000,-15.817,-20.725
0.059,0.410,-1.244,-95.229,-7.107,-30.878
0.071,0.407,-1.182,-116.573,1.824,-37.901
0.035,0.437,-1.059,-131.901,7.275,-42.153
0.099,0.455,-1.030,-139.260,13.229,-42.069
0.056,0.488,-0.954,-142.076,20.595,-39.695
0.052,0.536,-0.869,-142.405,19.702,-35.885
0.025,0.572,-0.727,-140.229,13.908,-30.397
0.030,0.588,-0.716,-136.443,5.588,-24.573
0.042,0.626,-0.703,-131.382,0.489,-18.275
0.059,0.656,-0.685,-125.573,-1.244,-12.573
0.061,0.679,-0.684,-118.977,-1.519,-8.237
0.081,0.715,-0.681,-113.321,0.076,-5.160
0.096,0.772,-0.668,-110.718,3.237,-4.252
0.098,0.808,-0.675,-113.328,7.595,-5.397
0.117,0.862,-0.678,-121.031,15.489,-8.359
0.118,0.900,-0.644,-132.748,24.084,-11.824
0.111,0.909,-0.619,-146.550,29.206,-14.695
0.101,0.914,-0.579,-159.084,32.290,-16.885
0.101,0.902,-0.557,-168.473,33.153,-17.649
0.102,0.888,-0.515,-177.313,33.718,-17.763
0.100,0.872,-0.472,-183.664,35.397,-17.053
0.093,0.857,-0.422,-188.046,40.038,-17.405
0.062,0.862,-0.378,-190.656,45.534,-19.863
0.044,0.879,-0.322,-191.588,48.863,-23.679
0.044,0.890,-0.282,-191.015,51.702,-27.084
0.048,0.895,-0.251,-188.015,54.267,-29.733
0.034,0.907,-0.217,-183.344,56.847,-31.824
0.029,0.925,-0.183,-176.832,60.000,-33.687
0.017,0.941,-0.140,-169.779,63.244,-34.939
0.006,0.952,-0.095,-163.183,64.145,-34.115
-0.006,0.946,-0.063,-157.527,60.168,-31.771
-0.011,0.959,-0.020,-152.611,53.618,-28.511
-0.024,0.967,0.010,-148.573,46.641,-25.405
-0.033,0.964,0.031,-144.954,40.924,-22.275
-0.034,0.976,0.057,-141.916,38.267,-18.802
-0.012,1.007,0.069,-138.626,39.305,-14.885
-0.031,0.988,0.104,-133.847,37.588,-10.328
-0.018,0.978,0.120,-128.702,35.924,-5.565
-0.012,0.987,0.142,-121.809,35.519,-1.099
-0.010,0.979,0.150,-115.611,36.885,2.641
-0.005,0.972,0.181,-111.000,38.618,5.359
-0.010,0.978,0.208,-107.252,40.153,7.237
-0.008,0.969,0.229,-104.183,39.763,8.466
0.006,0.968,0.226,-102.298,38.656,9.420
0.018,0.963,0.254,-98.573,37.237,9.366
0.022,0.949,0.257,-97.046,35.450,9.359
0.028,0.941,0.267,-95.748,33.893,8.641
0.034,0.949,0.274,-95.458,31.290,7.450
0.036,0.933,0.287,-91.336,28.588,6.473
0.039,0.927,0.302,-88.847,26.473,5.786
0.034,0.913,0.318,-86.786,20.229,4.366
0.054,0.916,0.316,-83.374,18.641,1.855
0.050,0.914,0.318,-80.305,19.366,-0.740
0.058,0.906,0.321,-76.985,22.168,-3.573
0.052,0.904,0.342,-72.679,27.145,-6.321
0.041,0.897,0.355,-69.565,30.573,-8.191
0.034,0.904,0.368,-66.893,33.145,-10.244
0.025,0.908,0.386,-65.023,33.771,-11.924
0.010,0.900,0.398,-63.450,33.046,-13.344
-0.002,0.909,0.412,-61.672,31.924,-14.214
0.002,0.907,0.417,-59.176,29.954,-14.740
-0.014,0.900,0.443,-55.832,27.977,-14.336
-0.014,0.892,0.456,-52.466,23.901,-13.382
-0.024,0.891,0.458,-49.481,19.458,-12.405
-0.028,0.878,0.466,-46.771,17.176,-11.924
-0.024,0.866,0.470,-44.740,16.244,-11.458
-0.029,0.890,0.473,-42.290,18.015,-12.076
-0.016,0.891,0.473,-38.809,23.969,-12.359
-0.032,0.878,0.480,-34.916,29.000,-11.641
-0.042,0.873,0.479,-30.550,28.618,-10.733
-0.053,0.873,0.491,-26.672,25.542,-9.756
-0.064,0.872,0.509,-23.176,19.153,-9.153
-0.073,0.866,0.507,-20.130,11.702,-8.542
-0.070,0.865,0.517,-16.870,5.748,-7.443
-0.067,0.864,0.490,-13.198,1.977,-6.458
-0.062,0.866,0.493,-9.611,-0.305,-5.084
-0.059,0.863,0.490,-6.107,-0.183,-3.840
-0.055,0.864,0.479,-2.870,1.405,-2.405
-0.062,0.867,0.468,-0.160,3.298,-1.618
-0.062,0.871,0.466,1.191,4.420,-1.649
-0.064,0.871,0.456,1.649,2.779,-1.603
-0.062,0.865,0.458,1.115,1.107,-1.176
-0.058,0.872,0.433,0.756,0.275,-0.733
-0.048,0.872,0.439,0.313,-1.282,0.046
-0.042,0.860,0.436,0.031,-0.634,0.687
-0.041,0.860,0.413,0.328,0.214,1.351
-0.036,0.863,0.415,0.298,1.489,1.473
-0.033,0.859,0.411,0.511,2.519,1.298
-0.034,0.862,0.414,0.389,2.702,0.603
-0.033,0.856,0.418,-0.023,2.725,-0.122

-0.111,0.910,0.785,34.061,9.023,8.069
-0.143,0.906,0.855,51.397,1.328,10.168
-0.172,0.874,0.960,79.145,-17.023,13.160
-0.195,0.832,1.081,113.550,-34.168,16.366
-0.248,0.821,1.165,156.847,-58.084,19.008
-0.255,0.790,1.217,206.756,-82.748,24.710
-0.316,0.682,1.156,250.130,-103.977,31.855
-0.261,0.772,1.102,250.130,-113.023,44.191
-0.282,0.683,1.063,250.130,-118.321,58.412
-0.290,0.594,0.919,250.130,-125.641,72.466
-0.256,0.593,0.796,250.130,-136.191,82.969
-0.228,0.559,0.594,250.130,-155.053,88.695
-0.166,0.515,0.407,250.130,-178.137,89.191
-0.091,0.491,0.178,250.130,-195.779,85.588
-0.023,0.488,-0.077,250.130,-199.336,76.985
0.045,0.469,-0.304,250.130,-187.496,69.473
0.131,0.461,-0.557,250.130,-154.130,63.252
0.192,0.465,-0.832,250.130,-103.687,60.168
0.182,0.444,-1.001,250.130,-54.779,58.733
0.173,0.399,-1.200,250.130,-12.427,58.809
0.189,0.332,-1.358,250.130,8.550,64.229
0.177,0.270,-1.516,250.130,29.160,67.237
0.210,0.318,-1.588,250.130,63.023,65.901
0.182,0.347,-1.555,250.130,89.237,60.115
0.142,0.373,-1.462,200.840,82.542,48.824
0.128,0.386,-1.378,130.763,54.656,34.221
0.112,0.378,-1.338,72.046,27.817,19.137
0.148,0.370,-1.332,20.237,8.191,5.496
0.170,0.338,-1.309,-17.137,-1.832,-2.855
0.173,0.321,-1.273,-51.389,-7.099,-8.053
0.190,0.336,-1.221,-81.672,-9.702,-10.595
0.181,0.349,-1.129,-102.962,-9.916,-11.931
0.177,0.370,-1.063,-119.878,-9.916,-12.641
0.168,0.377,-1.015,-130.550,-8.710,-13.527
0.162,0.377,-0.972,-136.405,-6.038,-14.374
0.171,0.413,-0.926,-137.977,-0.153,-15.511
0.176,0.454,-0.896,-136.542,10.244,-17.046
0.189,0.505,-0.862,-134.076,21.550,-18.427
0.185,0.538,-0.819,-132.817,28.550,-19.924
0.209,0.576,-0.802,-133.878,29.519,-20.130
0.220,0.630,-0.779,-136.573,29.985,-19.595
0.229,0.680,-0.759,-140.809,31.168,-18.733
0.236,0.718,-0.732,-146.603,32.656,-17.985
0.244,0.756,-0.699,-154.527,36.267,-17.099
0.251,0.789,-0.673,-162.145,42.076,-16.595
0.266,0.817,-0.636,-170.252,50.168,-16.328
0.265,0.843,-0.583,-179.382,58.420,-16.244
0.239,0.851,-0.524,-187.244,62.740,-18.336
0.219,0.853,-0.449,-194.511,58.832,-20.565
0.221,0.858,-0.393,-200.397,49.557,-22.840
0.220,0.854,-0.367,-204.290,40.748,-24.489
0.221,0.866,-0.324,-205.794,37.473,-26.878
0.212,0.884,-0.283,-204.710,40.290,-30.183
0.206,0.879,-0.248,-201.573,44.397,-33.534
0.204,0.880,-0.216,-197.084,48.031,-36.328
0.191,0.900,-0.158,-191.260,50.435,-38.962
0.173,0.911,-0.139,-184.267,49.656,-41.802
0.156,0.903,-0.090,-174.962,48.580,-45.275
0.151,0.906,-0.067,-163.336,52.427,-48.061
0.148,0.920,-0.046,-150.611,58.336,-50.038
0.139,0.927,-0.015,-139.985,61.313,-50.267
0.116,0.933,0.025,-129.504,62.962,-50.061
0.093,0.938,0.040,-120.962,58.824,-49.397
0.076,0.948,0.073,-114.962,51.206,-48.198
0.059,0.960,0.092,-109.397,41.321,-46.511
0.046,0.985,0.109,-104.427,30.809,-44.328
0.032,0.997,0.125,-101.305,24.092,-42.359
0.034,1.004,0.118,-95.466,19.252,-38.901
0.041,0.998,0.123,-94.618,15.550,-34.260
0.053,0.990,0.129,-89.038,12.534,-27.847
0.054,0.987,0.126,-84.847,10.794,-22.473
0.057,0.994,0.137,-81.412,10.595,-18.183
0.063,0.997,0.157,-78.992,10.710,-14.847
0.055,0.988,0.173,-78.893,6.076,-12.573
0.073,0.981,0.180,-78.672,2.977,-11.244
0.076,0.980,0.190,-79.458,-0.817,-10.489
0.084,0.978,0.189,-81.084,-4.511,-11.008
0.091,0.974,0.200,-83.023,-9.115,-12.588
0.089,0.957,0.182,-84.023,-12.779,-14.664
0.108,0.937,0.190,-83.802,-12.969,-16.458
0.119,0.938,0.197,-82.427,-8.870,-18.985
0.114,0.928,0.199,-80.748,0.573,-22.534
0.086,0.925,0.208,-79.366,10.840,-26.580
0.081,0.923,0.224,-78.359,19.267,-30.817
0.069,0.931,0.235,-78.137,25.130,-34.802
0.050,0.931,0.257,-77.908,28.427,-37.611
0.024,0.923,0.289,-77.756,28.519,-39.397
0.022,0.922,0.280,-77.649,25.763,-39.924
-0.001,0.923,0.325,-77.336,23.305,-38.870
-0.014,0.906,0.312,-77.214,21.176,-37.885
-0.019,0.907,0.322,-76.969,21.756,-37.641
-0.027,0.916,0.343,-77.099,24.061,-37.649
-0.034,0.909,0.354,-77.916,27.137,-37.740
-0.044,0.914,0.363,-78.763,29.588,-37.885
-0.064,0.903,0.385,-79.695,28.015,-38.153
-0.073,0.891,0.407,-79.962,25.145,-37.405
-0.076,0.891,0.410,-79.374,22.351,-36.290
-0.084,0.886,0.427,-78.130,20.771,-35.145
-0.090,0.880,0.430,-75.885,21.611,-33.916
-0.091,0.860,0.437,-73.687,25.092,-32.695
-0.092,0.854,0.432,-71.183,29.870,-31.786
-0.109,0.857,0.439,-68.145,33.656,-30.794
-0.104,0.859,0.477,-65.351,38.725,-29.664
-0.128,0.861,0.485,-62.481,42.962,-29.580
-0.146,0.864,0.518,-59.924,43.939,-29.221
-0.162,0.855,0.547,-56.053,41.595,-28.275
-0.181,0.837,0.573,-51.679,37.290,-26.313
-0.191,0.825,0.586,-46.794,30.092,-23.710
-0.184,0.843,0.595,-41.435,21.947,-20.901
-0.177,0.838,0.594,-34.084,19.275,-17.145
-0.187,0.821,0.609,-27.710,17.504,-13.557
-0.180,0.828,0.604,-20.779,13.748,-9.107
-0.182,0.830,0.614,-14.298,10.145,-4.832
-0.187,0.832,0.621,-9.092,8.053,-1.718
-0.194,0.832,0.616,-3.496,4.870,0.344
-0.187,0.828,0.620,1.328,0.870,2.397
-0.172,0.823,0.606,6.473,-3.985,5.244
-0.172,0.823,0.593,10.626,-7.160,7.382
-0.154,0.823,0.568,14.489,-8.847,9.206

-0.128,0.909,0.791,44.710,25.672,13.626
-0.145,0.898,0.873,63.122,29.580,18.695
-0.209,0.862,0.976,91.008,23.405,23.351
-0.327,0.667,0.928,124.870,0.916,28.748
-0.227,0.883,1.117,157.305,-5.954,35.221
-0.266,0.813,1.156,201.374,-21.702,43.282
-0.341,0.630,1.133,250.130,-52.183,54.496
-0.220,0.810,1.082,250.130,-60.557,66.015
-0.365,0.527,1.000,250.130,-85.733,76.931
-0.262,0.639,0.949,250.130,-96.779,83.443
-0.271,0.610,0.959,250.130,-120.130,90.725
-0.280,0.533,0.848,250.130,-142.771,94.557
-0.256,0.451,0.692,250.130,-166.550,96.099
-0.246,0.377,0.496,250.130,-192.000,94.496
-0.201,0.289,0.262,250.130,-225.031,89.588
-0.147,0.215,-0.006,250.130,-250.137,81.290
-0.073,0.187,-0.314,250.130,-250.137,66.443
0.026,0.194,-0.667,250.130,-250.137,48.473
0.094,0.167,-1.044,250.130,-232.664,33.550
0.143,0.161,-1.411,250.130,-146.840,23.397
0.101,0.113,-1.642,250.130,-72.275,20.695
0.153,0.253,-1.648,250.130,-14.466,28.641
0.022,0.171,-1.845,250.130,9.061,36.985
0.036,0.031,-2.000,250.130,62.313,26.977
0.067,0.208,-2.000,210.153,101.771,10.832
0.022,0.292,-1.739,103.656,86.985,-5.878
-0.049,0.263,-1.573,4.374,33.603,-22.718
-0.043,0.261,-1.496,-82.176,-20.420,-41.084
-0.042,0.267,-1.448,-146.977,-43.176,-57.649
-0.062,0.267,-1.359,-192.771,-43.702,-71.740
-0.082,0.261,-1.250,-223.779,-39.046,-80.198
-0.098,0.307,-1.152,-245.565,-34.992,-83.321
-0.082,0.359,-1.083,-250.137,-27.344,-81.527
-0.113,0.372,-0.964,-250.137,-16.053,-77.183
-0.123,0.406,-0.881,-249.664,-3.351,-70.504
-0.140,0.434,-0.803,-236.313,12.847,-62.168
-0.133,0.486,-0.724,-217.092,33.550,-52.511
-0.116,0.573,-0.649,-197.901,47.221,-41.092
-0.118,0.638,-0.584,-182.198,54.718,-30.916
-0.116,0.725,-0.511,-168.527,55.359,-20.389
-0.113,0.794,-0.473,-160.458,49.252,-12.229
-0.121,0.868,-0.428,-155.969,40.305,-6.458
-0.122,0.920,-0.395,-155.008,33.733,-3.344
-0.110,0.969,-0.389,-157.260,27.824,-2.038
-0.101,0.985,-0.373,-161.336,26.321,0.107
-0.097,1.002,-0.354,-166.725,26.786,3.061
-0.087,1.011,-0.330,-171.519,27.084,6.534
-0.065,1.011,-0.318,-175.519,30.702,11.031
-0.058,0.996,-0.295,-176.198,36.450,15.031
-0.044,0.986,-0.248,-175.603,43.336,17.931
-0.043,0.973,-0.213,-173.763,47.672,20.153
-0.038,0.944,-0.169,-170.656,50.298,21.130
-0.038,0.936,-0.136,-166.725,50.840,20.008
-0.044,0.935,-0.100,-162.137,48.321,16.771
-0.038,0.933,-0.059,-156.878,45.130,12.672
-0.043,0.947,-0.045,-150.679,41.450,8.931
-0.032,0.945,-0.031,-144.366,39.221,6.305
-0.038,0.946,-0.006,-137.252,39.863,4.359
-0.038,0.953,0.012,-128.824,39.740,3.130
-0.022,0.968,0.022,-121.122,39.214,3.634
-0.008,0.971,0.030,-114.115,38.710,4.496
-0.018,0.981,0.051,-108.809,38.305,5.176
-0.008,0.996,0.071,-105.618,37.885,6.588
0.003,0.996,0.079,-103.344,36.847,8.099
0.009,0.984,0.091,-101.023,33.458,9.053
0.004,0.980,0.111,-100.160,29.771,9.733
0.008,0.987,0.131,-96.962,26.817,9.557
0.003,0.986,0.155,-96.748,24.099,9.328
0.016,0.982,0.156,-96.275,23.031,9.191
0.030,0.982,0.160,-95.611,24.084,9.008
0.051,0.985,0.169,-95.817,29.466,9.267
0.052,0.982,0.180,-95.374,36.908,8.878
0.037,0.962,0.206,-92.473,40.023,8.229
0.044,0.956,0.218,-92.107,38.893,7.122
0.038,0.960,0.225,-91.534,37.427,5.710
0.028,0.959,0.246,-91.382,35.351,4.382
0.042,0.947,0.250,-89.603,34.664,2.748
0.041,0.931,0.270,-86.038,35.160,1.756
0.022,0.907,0.281,-82.130,31.901,0.863
0.025,0.901,0.287,-77.947,27.359,-0.107
0.024,0.905,0.290,-74.954,25.504,-1.137
0.029,0.908,0.304,-72.282,28.038,-2.725
0.015,0.920,0.317,-70.916,31.290,-5.198
0.003,0.918,0.335,-71.725,30.557,-8.237
0.000,0.926,0.340,-71.710,29.412,-11.000
-0.016,0.924,0.345,-70.817,27.000,-12.611
0.000,0.923,0.353,-69.107,27.534,-12.130
-0.017,0.902,0.362,-66.321,27.710,-11.679
-0.015,0.895,0.365,-63.282,26.840,-10.878
-0.021,0.885,0.382,-60.924,26.328,-10.053
-0.025,0.880,0.379,-59.153,26.420,-10.122
-0.030,0.882,0.394,-57.840,25.313,-11.214
-0.042,0.877,0.411,-57.427,24.511,-11.954
-0.056,0.869,0.426,-57.260,23.115,-13.099
-0.062,0.877,0.432,-57.412,19.878,-14.763
-0.060,0.879,0.435,-55.901,18.756,-14.924
-0.071,0.863,0.442,-53.779,17.733,-14.420
-0.059,0.879,0.447,-50.527,18.473,-12.588
-0.063,0.871,0.467,-47.145,20.443,-10.954
-0.069,0.859,0.468,-44.107,22.023,-9.565
-0.073,0.854,0.478,-41.542,20.573,-8.420
-0.079,0.854,0.490,-38.626,17.130,-7.718
-0.069,0.850,0.498,-35.595,14.588,-7.214
-0.066,0.842,0.505,-33.061,13.947,-7.206
-0.064,0.836,0.505,-30.221,13.099,-7.397
-0.061,0.831,0.501,-27.427,12.695,-7.779
-0.066,0.832,0.508,-24.809,12.626,-7.916
-0.072,0.837,0.506,-23.153,11.573,-8.595
-0.074,0.833,0.516,-21.718,10.023,-9.397
-0.071,0.836,0.516,-19.565,9.160,-10.008
-0.081,0.830,0.533,-17.412,8.557,-9.588
-0.088,0.830,0.518,-15.267,8.092,-9.244
-0.093,0.826,0.530,-13.611,7.924,-8.649
-0.096,0.833,0.534,-12.710,8.206,-8.328
-0.091,0.833,0.532,-12.191,8.824,-7.985
-0.097,0.829,0.527,-11.053,10.412,-7.473
-0.105,0.828,0.523,-9.031,11.008,-6.885
-0.099,0.834,0.541,-6.611,9.832,-6.130
-0.107,0.821,0.540,-4.458,8.595,-4.931

-0.126,0.866,0.821,43.626,27.641,16.115
-0.155,0.853,0.897,60.344,26.221,18.573
-0.165,0.847,0.955,79.374,20.634,22.710
-0.153,0.869,1.028,102.565,16.641,26.260
-0.209,0.821,1.085,136.328,3.672,29.260
-0.258,0.813,1.186,173.641,-18.893,30.786
-0.286,0.740,1.183,214.115,-49.130,33.481
-0.277,0.782,1.165,250.130,-70.916,36.084
-0.261,0.784,1.135,250.130,-78.931,40.031
-0.244,0.732,0.984,250.130,-82.565,47.664
-0.252,0.692,0.918,250.130,-87.015,56.176
-0.208,0.684,0.798,250.130,-94.863,65.427
-0.218,0.597,0.692,250.130,-106.382,71.351
-0.180,0.561,0.538,250.130,-121.832,73.649
-0.157,0.521,0.326,250.130,-145.107,71.473
-0.114,0.458,0.108,250.130,-166.374,66.924
-0.047,0.436,-0.124,250.130,-172.809,59.863
0.013,0.447,-0.357,250.130,-164.069,51.870
0.058,0.414,-0.575,250.130,-145.878,46.664
0.073,0.375,-0.748,250.130,-124.771,42.176
0.103,0.334,-0.934,250.130,-104.504,39.084
0.094,0.294,-1.132,250.130,-83.305,38.069
0.083,0.262,-1.315,250.130,-51.748,35.382
0.091,0.228,-1.451,250.130,-11.382,33.107
0.108,0.281,-1.571,250.130,30.344,31.473
0.110,0.294,-1.722,250.130,52.076,32.557
0.035,0.244,-1.583,223.580,61.313,27.252
0.021,0.258,-1.541,158.527,51.115,18.435
0.008,0.238,-1.474,90.992,25.366,8.672
0.005,0.231,-1.456,27.328,-0.855,-0.527
0.032,0.238,-1.435,-24.565,-15.183,-7.290
0.031,0.246,-1.403,-67.443,-20.969,-12.901
0.026,0.256,-1.311,-102.878,-23.176,-17.252
0.014,0.256,-1.245,-132.885,-25.710,-20.153
0.005,0.267,-1.180,-154.466,-27.786,-23.046
-0.020,0.281,-1.112,-169.473,-26.450,-26.191
-0.002,0.314,-1.085,-178.603,-19.191,-28.672
0.025,0.344,-1.034,-181.252,-4.504,-29.092
0.031,0.399,-0.967,-180.137,11.618,-27.115
0.045,0.453,-0.900,-176.855,23.534,-22.947
0.050,0.523,-0.838,-172.969,32.756,-18.466
0.059,0.588,-0.801,-171.008,38.038,-14.588
0.045,0.655,-0.748,-170.389,41.084,-11.351
0.039,0.705,-0.707,-171.908,43.328,-10.221
0.035,0.770,-0.652,-175.153,46.084,-9.435
0.047,0.820,-0.616,-179.092,51.107,-8.191
0.039,0.870,-0.559,-183.611,55.290,-7.832
0.031,0.904,-0.494,-189.947,57.115,-7.038
0.023,0.904,-0.454,-195.374,55.588,-5.435
0.016,0.910,-0.406,-199.229,51.038,-2.122
0.034,0.923,-0.363,-201.191,46.496,2.176
0.037,0.924,-0.316,-201.611,42.160,7.710
0.036,0.928,-0.264,-200.664,37.557,12.786
0.046,0.919,-0.240,-197.847,34.282,16.595
0.054,0.921,-0.218,-192.969,33.855,19.275
0.054,0.910,-0.173,-185.931,36.298,21.298
0.085,0.908,-0.159,-176.244,39.191,21.733
0.086,0.908,-0.142,-166.656,40.748,20.802
0.076,0.919,-0.092,-159.557,41.053,17.275
0.086,0.936,-0.066,-151.672,41.763,13.244
0.085,0.947,-0.034,-145.466,40.160,10.229
0.075,0.943,-0.026,-139.053,36.641,7.779
0.089,0.963,-0.014,-133.305,32.389,6.725
0.088,0.967,0.002,-128.405,29.595,6.557
0.099,0.975,0.016,-126.359,28.809,6.969
0.111,0.976,0.030,-125.649,27.321,7.229
0.112,0.991,0.049,-125.779,27.626,8.153
0.123,1.007,0.061,-126.511,32.008,8.458
0.122,1.003,0.092,-127.092,35.550,9.206
0.130,0.982,0.106,-127.214,38.183,9.954
0.121,0.975,0.129,-127.756,38.611,11.191
0.146,0.966,0.125,-127.145,39.550,11.603
0.150,0.951,0.168,-126.519,44.237,11.580
0.159,0.946,0.168,-125.450,48.695,10.908
0.155,0.925,0.207,-125.435,49.687,10.008
0.154,0.926,0.221,-126.679,47.504,7.534
0.157,0.930,0.237,-127.122,46.313,4.229
0.150,0.921,0.259,-126.947,46.679,0.679
0.156,0.913,0.287,-126.168,48.634,-2.046
0.144,0.906,0.309,-124.153,50.229,-3.740
0.133,0.897,0.341,-121.420,51.519,-5.321
0.132,0.892,0.348,-117.603,52.519,-6.710
0.127,0.875,0.384,-111.267,54.290,-8.756
0.128,0.868,0.399,-104.710,54.450,-10.305
0.127,0.863,0.415,-99.519,54.122,-11.992
0.111,0.870,0.448,-94.458,53.023,-14.389
0.090,0.870,0.475,-87.099,48.649,-17.168
0.082,0.867,0.485,-81.275,44.450,-19.641
0.063,0.852,0.506,-76.176,39.015,-21.824
0.056,0.857,0.497,-69.580,34.160,-23.679
0.050,0.856,0.528,-61.725,29.725,-24.099
0.036,0.852,0.537,-54.336,26.870,-23.328
0.033,0.857,0.553,-46.168,24.618,-22.107
0.032,0.861,0.553,-38.756,22.985,-20.366
0.012,0.857,0.541,-31.954,20.656,-18.603
0.014,0.865,0.555,-25.939,17.107,-16.817
0.011,0.866,0.555,-22.649,13.863,-15.282
0.007,0.866,0.547,-20.229,9.985,-13.489
0.013,0.865,0.529,-18.771,7.130,-12.382
0.009,0.864,0.521,-17.405,6.137,-11.924
0.003,0.855,0.515,-16.397,5.664,-11.260
0.007,0.847,0.508,-14.618,5.344,-10.557
-0.001,0.850,0.519,-12.702,5.336,-9.466
0.003,0.848,0.515,-10.435,6.290,-8.344
0.005,0.845,0.505,-7.901,8.275,-7.565
-0.001,0.853,0.505,-6.282,8.145,-6.863
-0.004,0.849,0.496,-5.832,5.710,-6.527
-0.001,0.854,0.492,-5.550,3.412,-6.336
0.002,0.851,0.494,-4.763,2.763,-6.176
-0.003,0.847,0.469,-3.550,2.908,-5.481
-0.012,0.845,0.473,-3.275,2.763,-5.740
0.005,0.856,0.454,-3.672,3.573,-5.313
0.002,0.852,0.458,-3.710,3.885,-4.687
0.004,0.844,0.454,-4.832,4.954,-4.359
0.009,0.848,0.448,-5.748,6.321,-3.473
0.008,0.841,0.436,-7.015,8.901,-3.137
0.003,0.841,0.443,-8.107,10.855,-3.298
0.009,0.843,0.453,-9.573,11.473,-2.901
0.005,0.846,0.459,-10.573,11.908,-2.580

-0.059,0.900,0.857,36.153,24.710,7.008
-0.084,0.879,0.946,51.855,17.466,11.420
-0.081,0.852,1.038,72.634,9.954,17.053
-0.124,0.855,1.164,103.305,4.053,19.901
-0.196,0.808,1.313,137.992,-16.221,20.824
-0.261,0.710,1.414,181.557,-52.290,24.908
-0.220,0.784,1.402,238.015,-84.840,31.840
-0.236,0.641,1.386,250.130,-113.099,40.924
-0.240,0.595,1.278,250.130,-138.763,51.153
-0.170,0.653,1.161,250.130,-167.359,59.496
-0.112,0.579,0.890,250.130,-182.695,62.916
-0.161,0.377,0.733,250.130,-203.405,61.634
-0.111,0.316,0.462,250.130,-235.550,54.740
-0.039,0.300,0.188,250.130,-250.137,42.756
-0.014,0.273,-0.111,250.130,-250.137,26.664
0.051,0.261,-0.347,250.130,-243.427,10.053
0.081,0.261,-0.604,250.130,-215.229,-2.603
0.103,0.256,-0.839,250.130,-178.779,-10.511
0.129,0.271,-1.082,250.130,-128.481,-14.092
0.131,0.276,-1.350,250.130,-66.573,-11.733
0.074,0.397,-1.415,250.130,-38.290,1.076
0.040,0.302,-1.631,250.130,-32.489,11.221
0.072,0.261,-1.847,250.130,-3.000,17.725
0.073,0.287,-1.909,236.550,33.534,17.366
0.033,0.230,-1.844,169.107,80.267,11.191
-0.101,0.168,-1.653,108.588,101.473,-9.565
-0.100,0.299,-1.431,46.313,76.863,-28.817
-0.071,0.355,-1.292,-19.504,26.511,-37.809
-0.065,0.291,-1.266,-76.496,-13.565,-40.672
-0.069,0.283,-1.282,-119.779,-33.244,-46.244
-0.058,0.306,-1.203,-147.145,-22.947,-48.275
-0.043,0.291,-1.199,-166.344,-2.580,-51.321
-0.072,0.317,-1.093,-179.641,5.443,-53.023
-0.071,0.352,-1.040,-190.000,2.008,-52.366
-0.039,0.395,-0.969,-197.206,-1.244,-49.763
-0.019,0.443,-0.918,-200.832,1.580,-45.221
-0.017,0.479,-0.875,-201.282,9.130,-39.122
-0.005,0.533,-0.817,-199.305,18.351,-33.122
0.004,0.586,-0.777,-194.840,29.740,-26.931
0.014,0.652,-0.742,-190.443,40.618,-20.481
0.009,0.713,-0.668,-187.832,48.397,-14.550
0.004,0.778,-0.600,-188.160,53.237,-9.771
0.008,0.831,-0.549,-191.595,55.672,-6.031
0.009,0.875,-0.485,-197.771,56.603,-2.840
0.019,0.927,-0.419,-206.611,57.023,-0.107
0.016,0.950,-0.360,-216.794,58.092,1.802
0.017,0.965,-0.307,-223.817,58.603,3.237
0.017,0.961,-0.255,-228.397,59.573,4.901
0.037,0.951,-0.205,-229.824,60.565,7.153
0.045,0.934,-0.160,-227.840,60.076,9.786
0.054,0.919,-0.115,-223.214,60.550,11.771
0.060,0.911,-0.074,-216.924,61.061,12.832
0.059,0.898,-0.032,-209.908,61.481,12.115
0.042,0.906,0.016,-202.634,60.443,9.221
0.045,0.902,0.034,-194.435,61.191,4.718
0.047,0.901,0.068,-185.489,61.870,-0.397
0.047,0.906,0.101,-176.000,63.344,-5.000
0.053,0.932,0.137,-166.183,61.794,-8.763
0.034,0.948,0.172,-157.191,55.817,-11.992
0.038,0.938,0.208,-148.221,46.031,-14.000
0.038,0.940,0.216,-139.992,38.824,-15.344
0.038,0.943,0.242,-131.656,32.176,-16.107
0.036,0.943,0.259,-124.679,25.137,-16.481
0.043,0.945,0.281,-118.313,18.718,-16.321
0.041,0.941,0.309,-112.023,14.511,-16.664
0.046,0.953,0.325,-104.817,11.893,-17.191
0.046,0.949,0.341,-97.702,12.061,-17.008
0.055,0.956,0.345,-90.779,12.931,-15.924
0.050,0.958,0.357,-84.198,14.313,-14.137
0.047,0.945,0.360,-77.145,14.130,-12.412
0.056,0.942,0.379,-70.008,12.290,-10.160
0.059,0.938,0.384,-63.267,7.908,-7.718
0.056,0.947,0.393,-56.420,3.458,-5.504
0.052,0.937,0.396,-50.893,0.046,-4.962
0.055,0.932,0.417,-45.588,-1.008,-4.374
0.045,0.939,0.405,-40.458,-1.687,-3.809
0.004,0.922,0.405,-35.878,-3.137,-4.328
0.032,0.946,0.399,-33.802,-6.092,-2.427
0.047,0.974,0.387,-31.328,-8.183,1.130
0.042,0.912,0.364,-27.435,-4.458,2.679
0.048,0.937,0.378,-23.924,-2.672,3.244
0.009,0.898,0.317,-21.115,-2.878,2.176
0.075,0.993,0.342,-22.878,4.435,3.145
0.048,0.931,0.330,-21.359,10.771,2.290
0.020,0.892,0.334,-21.023,13.458,0.496
0.033,0.923,0.342,-22.046,12.260,-0.855
0.049,0.920,0.332,-24.290,12.275,-1.748
0.022,0.878,0.311,-26.802,16.748,-3.084
0.064,0.988,0.321,-31.931,23.489,-3.130
0.040,0.892,0.340,-33.809,22.908,-3.023
-0.013,0.851,0.329,-33.611,16.412,-3.962
0.060,0.950,0.354,-35.718,17.458,-5.504
0.041,0.913,0.355,-33.939,19.557,-7.115
0.016,0.845,0.373,-32.397,16.672,-9.427
0.015,0.885,0.379,-30.740,10.580,-10.908
0.016,0.882,0.357,-31.214,11.649,-11.992
0.032,0.932,0.372,-31.977,17.710,-12.916
0.008,0.885,0.384,-32.092,21.679,-14.183
0.005,0.878,0.396,-32.176,21.023,-14.473
-0.035,0.862,0.361,-31.626,17.252,-14.550
0.037,0.941,0.396,-33.840,20.809,-12.397
0.006,0.900,0.404,-32.817,23.664,-10.832
-0.009,0.856,0.412,-31.855,22.702,-9.718
-0.008,0.881,0.437,-30.763,18.679,-9.466
-0.009,0.873,0.434,-30.023,18.321,-9.702
-0.019,0.874,0.448,-29.267,18.519,-9.489
-0.000,0.869,0.450,-29.069,18.885,-9.473
-0.010,0.911,0.454,-28.588,16.824,-7.427
-0.031,0.868,0.461,-26.206,16.389,-5.847
-0.033,0.851,0.463,-23.176,17.427,-5.145
-0.039,0.866,0.480,-20.115,14.527,-4.046
-0.033,0.861,0.482,-18.618,9.473,-4.084
-0.014,0.855,0.476,-16.740,8.366,-4.855
0.001,0.855,0.469,-14.672,8.267,-4.870
-0.018,0.850,0.468,-12.786,6.824,-5.275
-0.014,0.847,0.465,-10.962,7.252,-5.931
-0.014,0.845,0.477,-9.122,9.710,-6.397
-0.034,0.849,0.478,-7.122,10.053,-6.847
-0.038,0.852,0.488,-5.435,9.107,-6.672

-0.083,0.942,0.806,8.176,61.565,17.817
-0.135,0.955,0.885,10.756,69.656,20.191
-0.199,0.902,0.930,20.473,65.321,24.031
-0.219,0.865,0.969,34.168,57.252,30.511
-0.221,0.901,1.020,56.718,45.542,41.260
-0.237,0.873,1.042,89.168,33.527,53.229
-0.235,0.833,1.075,124.534,23.427,66.916
-0.256,0.821,1.101,158.328,6.992,80.771
-0.272,0.782,1.069,194.985,-19.878,93.603
-0.252,0.740,1.008,231.061,-46.466,104.305
-0.187,0.710,0.938,250.130,-68.824,115.908
-0.157,0.687,0.859,250.130,-95.351,124.229
-0.125,0.622,0.747,250.130,-119.061,129.718
-0.078,0.570,0.597,250.130,-144.099,131.122
-0.037,0.514,0.448,250.130,-162.603,127.405
0.017,0.423,0.275,250.130,-177.405,120.321
0.062,0.401,0.111,250.130,-185.496,111.985
0.125,0.339,-0.034,250.130,-192.038,101.824
0.138,0.318,-0.201,250.130,-198.710,91.237
0.144,0.257,-0.390,250.130,-210.282,78.687
0.146,0.181,-0.624,250.130,-215.534,65.656
0.161,0.135,-0.832,250.130,-204.435,53.252
0.212,0.162,-1.035,250.130,-168.221,43.053
0.270,0.209,-1.194,250.130,-118.740,37.321
0.276,0.198,-1.336,250.130,-69.878,35.176
0.277,0.123,-1.434,250.130,-32.420,39.855
0.161,0.183,-1.451,250.130,-23.863,38.015
0.119,0.167,-1.547,250.130,-59.389,27.924
0.252,0.142,-1.690,239.786,-72.122,22.046
0.198,0.107,-1.732,174.824,-57.450,11.046
0.226,0.114,-1.885,120.099,-28.023,-3.565
0.229,0.115,-1.847,65.885,22.427,-20.855
0.139,0.106,-1.695,17.298,61.611,-45.038
0.413,0.298,-1.577,-41.122,56.519,-55.763
0.108,0.189,-1.402,-103.847,17.275,-64.168
0.044,0.202,-1.249,-153.313,-15.008,-68.466
0.104,0.276,-1.183,-188.763,-23.595,-68.351
0.082,0.290,-1.177,-212.229,-18.672,-65.656
0.057,0.298,-1.073,-227.000,-13.702,-61.229
0.083,0.369,-1.004,-234.038,-7.313,-54.702
0.110,0.426,-0.942,-235.397,2.092,-47.832
0.100,0.483,-0.888,-232.786,13.695,-42.382
0.103,0.560,-0.812,-227.931,27.580,-38.710
0.094,0.634,-0.734,-222.618,42.687,-36.382
0.078,0.695,-0.657,-216.137,53.481,-33.817
0.065,0.735,-0.578,-211.649,57.542,-31.450
0.069,0.779,-0.516,-208.206,57.573,-28.092
0.048,0.814,-0.464,-205.412,53.565,-23.885
0.055,0.840,-0.417,-203.122,49.702,-19.473
0.061,0.854,-0.384,-200.336,49.237,-15.573
0.070,0.882,-0.342,-197.878,49.992,-11.557
0.067,0.892,-0.309,-195.115,47.733,-7.687
0.054,0.900,-0.271,-193.099,43.107,-4.527
0.060,0.924,-0.243,-192.672,39.641,-2.160
0.067,0.954,-0.206,-193.160,37.779,-0.710
0.068,0.970,-0.187,-193.901,38.885,-0.206
0.083,0.980,-0.154,-193.351,42.061,0.214
0.089,0.974,-0.132,-191.977,44.031,0.870
0.091,0.958,-0.112,-188.863,46.183,1.771
0.091,0.964,-0.083,-184.718,50.809,1.221
0.099,0.964,-0.048,-180.008,57.115,-0.527
0.088,0.967,-0.017,-175.489,62.763,-2.328
0.078,0.966,0.026,-169.916,65.740,-4.847
0.075,0.948,0.064,-163.374,65.702,-5.916
0.085,0.952,0.093,-156.939,64.786,-6.191
0.090,0.958,0.121,-151.053,63.427,-6.069
0.093,0.954,0.149,-144.427,58.687,-4.924
0.104,0.956,0.188,-140.260,52.985,-3.809
0.089,0.960,0.214,-137.229,42.878,-3.145
0.069,0.948,0.250,-136.076,29.038,-3.115
0.076,0.954,0.241,-134.779,17.450,-2.580
0.101,0.953,0.236,-131.359,13.916,-0.748
0.125,0.956,0.255,-127.336,18.252,1.344
0.133,0.942,0.253,-122.855,24.893,3.863
0.150,0.940,0.268,-117.855,30.221,5.847
0.152,0.922,0.296,-113.305,33.771,7.099
0.147,0.917,0.318,-110.122,34.588,7.053
0.140,0.911,0.344,-107.481,34.160,4.832
0.138,0.910,0.368,-107.191,29.023,1.595
0.155,0.904,0.380,-105.870,28.191,-1.405
0.162,0.895,0.398,-103.237,29.679,-3.870
0.149,0.884,0.410,-100.481,32.573,-6.878
0.141,0.878,0.427,-95.496,32.908,-10.580
0.143,0.865,0.436,-88.931,30.557,-13.389
0.141,0.866,0.439,-81.252,28.756,-15.359
0.124,0.851,0.453,-72.542,28.679,-17.542
0.110,0.851,0.477,-65.221,28.695,-19.710
0.091,0.855,0.503,-60.267,26.542,-22.015
0.087,0.867,0.500,-56.916,23.985,-24.115
0.068,0.865,0.508,-52.802,19.977,-25.595
0.067,0.865,0.515,-48.359,18.198,-26.153
0.066,0.870,0.509,-44.092,17.420,-25.832
0.057,0.867,0.514,-39.313,16.321,-24.695
0.048,0.862,0.513,-35.481,14.565,-23.351
0.040,0.863,0.514,-32.008,14.893,-21.771
0.028,0.866,0.508,-28.405,15.992,-21.290
0.029,0.867,0.519,-25.534,15.847,-20.305
0.013,0.854,0.524,-22.656,15.237,-18.672
0.009,0.864,0.515,-20.229,13.405,-17.198
0.005,0.858,0.517,-18.191,10.099,-16.046
-0.005,0.860,0.519,-16.275,7.290,-14.481
-0.010,0.857,0.513,-15.076,5.344,-13.099
-0.011,0.863,0.514,-13.473,3.931,-11.641
-0.004,0.854,0.497,-11.771,3.397,-9.634
-0.006,0.851,0.493,-9.847,4.252,-8.053
-0.005,0.848,0.489,-7.786,4.290,-6.679
-0.001,0.845,0.489,-6.099,4.595,-5.450
0.007,0.850,0.490,-4.328,6.282,-4.198
0.002,0.853,0.488,-3.015,7.260,-3.405
0.001,0.842,0.489,-2.412,5.519,-3.244
0.007,0.841,0.484,-1.702,3.603,-3.366
0.008,0.840,0.476,-1.290,2.718,-3.206
0.014,0.844,0.477,-0.908,2.832,-3.542
0.019,0.848,0.465,-0.977,3.481,-4.092
0.025,0.842,0.465,-1.763,5.115,-4.122
0.023,0.849,0.455,-2.802,6.664,-4.504
0.019,0.840,0.457,-3.260,7.382,-4.527
0.020,0.843,0.458,-3.710,7.924,-3.786
0.020,0.844,0.457,-4.473,8.359,-3.664

0.202,0.245,-1.294,250.130,-9.122,43.435
0.128,0.223,-1.419,250.130,-5.611,50.924
0.183,0.146,-1.558,250.130,0.672,53.412
0.154,0.014,-1.752,250.130,20.008,50.389
0.192,-0.089,-1.982,250.130,62.779,29.733
0.228,0.171,-1.676,228.817,88.824,11.389
0.264,0.271,-1.555,154.107,80.267,-1.122
0.149,0.171,-1.425,89.107,44.290,-9.534
0.103,0.110,-1.419,18.099,-1.176,-21.145
0.172,0.197,-1.451,-44.733,-26.351,-32.450
0.170,0.240,-1.423,-100.145,-30.221,-43.885
0.122,0.198,-1.361,-146.687,-32.534,-52.282
0.090,0.188,-1.287,-182.145,-38.092,-54.985
0.088,0.222,-1.219,-208.924,-39.008,-52.992
0.089,0.253,-1.161,-228.878,-36.748,-49.015
0.094,0.285,-1.116,-240.855,-32.840,-44.740
0.085,0.317,-1.082,-247.069,-25.015,-40.031
0.102,0.353,-1.045,-248.198,-11.122,-35.252
0.113,0.404,-0.965,-244.771,7.580,-30.267
0.144,0.471,-0.900,-239.305,27.977,-25.779
0.152,0.566,-0.813,-233.336,48.496,-22.466
0.146,0.615,-0.723,-228.031,61.885,-21.397
0.124,0.672,-0.639,-223.588,66.847,-21.908
0.116,0.714,-0.574,-220.160,64.863,-22.954
0.113,0.748,-0.516,-216.840,58.366,-23.603
0.104,0.771,-0.478,-213.534,52.252,-23.229
0.097,0.802,-0.432,-210.496,48.099,-22.008
0.093,0.838,-0.407,-207.679,46.908,-19.802
0.083,0.857,-0.371,-204.832,46.992,-17.695
0.081,0.874,-0.341,-200.969,47.229,-14.985
0.089,0.874,-0.315,-195.718,48.618,-11.893
0.098,0.892,-0.291,-189.489,50.282,-8.084
0.105,0.904,-0.258,-182.870,51.092,-4.412
0.123,0.916,-0.219,-175.733,49.893,-0.618
0.119,0.912,-0.190,-169.893,47.084,2.015
0.117,0.935,-0.141,-165.527,45.618,2.145
0.104,0.958,-0.110,-162.084,42.397,0.282
0.097,0.976,-0.068,-159.198,37.229,-2.763
0.114,0.979,-0.058,-156.145,34.718,-4.565
0.123,0.979,-0.045,-152.641,34.321,-5.679
0.135,0.974,-0.037,-147.359,35.817,-5.679
0.142,0.972,-0.022,-141.076,38.885,-4.947
0.150,0.968,-0.007,-135.008,38.099,-3.534
0.134,0.966,0.018,-130.962,36.359,-2.137
0.124,0.978,0.053,-128.870,34.733,-1.702
0.136,1.005,0.066,-127.618,34.641,-1.710
0.130,0.998,0.095,-126.542,35.282,-1.557
0.130,0.981,0.115,-125.038,36.573,-1.244
0.145,0.981,0.116,-122.359,37.916,-0.740
0.153,0.977,0.132,-118.282,41.794,0.420
0.156,0.954,0.138,-113.160,45.069,1.481
0.154,0.951,0.150,-109.237,46.954,1.969
0.149,0.948,0.171,-106.130,47.000,0.824
0.155,0.950,0.197,-104.427,43.725,-1.191
0.143,0.941,0.215,-102.366,39.847,-3.634
0.135,0.940,0.244,-101.634,34.901,-5.901
0.135,0.930,0.253,-100.969,27.267,-8.015
0.132,0.930,0.258,-99.565,20.931,-9.595
0.136,0.919,0.266,-97.580,18.389,-10.534
0.148,0.927,0.277,-95.809,21.328,-11.160
0.144,0.923,0.273,-95.504,28.878,-11.908
0.156,0.918,0.278,-93.931,36.740,-12.573
0.143,0.917,0.288,-91.687,41.679,-13.466
0.137,0.914,0.300,-92.282,45.656,-14.328
0.132,0.906,0.306,-92.870,48.473,-15.840
0.126,0.890,0.316,-94.458,51.344,-17.763
0.111,0.905,0.320,-100.580,54.511,-21.176
0.089,0.896,0.327,-103.756,56.901,-25.641
0.074,0.872,0.362,-107.069,55.527,-28.779
0.058,0.870,0.386,-110.519,52.183,-31.176
0.048,0.869,0.405,-112.420,45.412,-32.252
0.032,0.852,0.425,-111.802,38.557,-32.328
0.022,0.820,0.452,-110.267,30.481,-29.710
0.031,0.831,0.474,-106.855,24.412,-26.015
0.030,0.824,0.487,-102.313,21.237,-22.481
0.022,0.823,0.506,-96.901,19.237,-18.504
0.012,0.804,0.544,-90.122,19.718,-14.588
-0.009,0.798,0.571,-84.252,21.473,-10.771
-0.039,0.818,0.628,-78.542,21.382,-6.916
-0.062,0.811,0.647,-72.489,15.328,-3.366
-0.087,0.811,0.672,-65.664,3.595,0.626
-0.093,0.800,0.682,-57.901,-7.641,5.206
-0.066,0.784,0.701,-46.985,-17.397,11.573
-0.046,0.781,0.710,-35.740,-17.817,16.618
-0.011,0.786,0.694,-22.687,-9.275,21.573
-0.010,0.777,0.715,-10.191,2.221,23.580
-0.002,0.781,0.715,-1.740,7.214,23.534
-0.019,0.777,0.717,4.168,6.710,22.405
-0.011,0.775,0.709,7.710,3.069,20.122
0.008,0.791,0.673,10.374,-2.939,17.092
0.025,0.795,0.668,13.137,-10.374,14.870
0.025,0.783,0.654,15.359,-19.740,13.504
0.042,0.773,0.619,17.374,-28.183,12.282
0.063,0.774,0.602,19.397,-30.252,10.298
0.072,0.770,0.574,21.649,-28.229,8.137
0.085,0.767,0.550,23.924,-21.252,6.473
0.095,0.771,0.526,26.023,-12.580,5.015
0.094,0.785,0.517,27.107,-5.763,3.824
0.099,0.786,0.507,27.336,-3.145,2.450
0.083,0.795,0.491,26.702,-4.137,1.855
0.088,0.807,0.488,24.763,-5.969,0.595
0.090,0.805,0.481,21.405,-5.321,-0.687
0.095,0.806,0.471,17.092,-4.756,-1.557
0.100,0.820,0.460,12.832,-3.611,-2.435
0.099,0.813,0.435,9.580,0.786,-3.221
0.114,0.810,0.447,6.382,6.939,-3.160
0.099,0.798,0.453,3.725,11.168,-3.336
0.094,0.805,0.461,0.985,12.672,-3.786
0.089,0.808,0.490,-1.779,12.275,-5.321
0.082,0.805,0.500,-3.534,8.733,-6.992
0.084,0.810,0.513,-3.000,4.595,-7.870
0.083,0.806,0.514,-1.672,3.290,-7.847
0.068,0.806,0.531,0.382,0.634,-7.870
0.071,0.813,0.554,2.756,-1.847,-7.275
0.073,0.816,0.565,5.496,-0.786,-6.382
0.063,0.810,0.580,9.191,0.550,-5.115
0.065,0.819,0.575,13.153,1.038,-3.412
0.061,0.825,0.590,16.702,0.954,-1.527
0.057,0.819,0.603,19.641,1.687,-0.115

-0.036,0.870,0.906,67.695,-8.176,9.695
-0.060,0.871,0.926,83.160,-21.221,11.328
-0.048,0.840,0.927,103.344,-31.328,16.031
-0.034,0.840,0.917,123.855,-31.145,22.702
-0.034,0.842,0.941,148.611,-27.435,31.672
-0.052,0.840,0.971,174.359,-24.718,41.000
-0.054,0.834,1.010,203.260,-25.901,51.389
-0.097,0.820,1.037,234.908,-35.015,60.939
-0.100,0.778,1.040,250.130,-54.756,70.450
-0.095,0.717,1.000,250.130,-81.244,79.718
-0.069,0.669,0.907,250.130,-103.321,88.427
-0.019,0.605,0.785,250.130,-120.695,94.786
-0.009,0.528,0.660,250.130,-135.473,97.145
0.018,0.435,0.543,250.130,-151.351,96.366
0.031,0.362,0.410,250.130,-169.725,93.069
0.059,0.289,0.266,250.130,-186.420,88.229
0.050,0.191,0.075,250.130,-210.794,80.458
0.053,0.068,-0.165,250.130,-240.939,69.611
0.092,0.003,-0.421,250.130,-250.137,58.832
0.318,0.062,-0.864,250.130,-221.573,54.641
0.393,0.048,-1.223,250.130,-143.557,53.046
0.361,-0.038,-1.412,250.130,-66.702,58.962
0.238,-0.234,-1.536,250.130,-14.786,71.115
0.262,-0.131,-1.656,250.130,6.824,78.672
0.321,-0.013,-1.732,250.130,27.427,80.145
0.328,-0.007,-1.811,250.130,22.756,72.802
0.356,0.004,-1.886,250.130,5.344,56.290
0.364,0.031,-1.935,175.863,-9.305,27.527
0.344,0.049,-1.945,79.137,-19.985,-5.168
0.324,0.042,-1.872,-21.794,-28.786,-40.466
0.263,0.052,-1.764,-107.382,-30.962,-69.817
0.201,0.065,-1.632,-168.786,-28.542,-88.389
0.149,0.081,-1.497,-215.786,-24.740,-98.397
0.093,0.099,-1.361,-248.939,-23.053,-103.221
0.056,0.121,-1.231,-250.137,-22.450,-102.321
0.022,0.167,-1.110,-250.137,-20.611,-97.321
0.027,0.211,-1.038,-250.137,-15.450,-89.053
0.022,0.230,-0.963,-250.137,-4.550,-76.779
0.008,0.282,-0.869,-250.137,7.015,-63.893
0.029,0.386,-0.791,-250.137,18.221,-48.901
0.017,0.448,-0.713,-245.550,23.695,-35.450
-0.015,0.506,-0.615,-230.191,25.328,-23.260
0.021,0.632,-0.557,-216.122,22.160,-15.191
0.068,0.725,-0.514,-203.115,23.221,-6.748
0.023,0.774,-0.445,-192.939,18.809,-0.954
0.109,0.846,-0.403,-185.176,13.634,7.168
0.156,0.879,-0.410,-179.260,17.252,15.122
0.151,0.903,-0.402,-174.084,24.481,19.763
0.157,0.927,-0.327,-172.008,28.847,23.366
0.149,0.927,-0.284,-172.115,28.534,24.290
0.161,0.943,-0.239,-172.656,23.763,23.008
0.194,0.977,-0.216,-172.924,20.282,21.664
0.204,0.968,-0.213,-171.756,18.374,19.573
0.192,0.954,-0.163,-168.771,17.168,15.115
0.147,0.954,-0.085,-161.481,19.336,9.740
0.189,0.875,-0.081,-146.160,52.176,1.618
0.319,0.910,-0.225,-135.397,84.954,-1.725
0.298,0.926,-0.204,-125.641,87.344,-4.130
0.222,0.908,-0.094,-121.603,79.176,-6.794
0.229,0.926,-0.055,-122.649,62.611,-9.405
0.238,1.002,-0.091,-125.145,45.603,-14.313
0.230,0.986,-0.055,-128.229,41.931,-20.992
0.223,0.977,-0.063,-128.382,40.687,-26.947
0.230,0.963,-0.066,-126.511,47.214,-32.931
0.212,0.967,0.014,-123.725,49.992,-35.305
0.173,0.979,0.035,-122.023,45.855,-35.267
0.149,0.956,0.034,-120.473,35.252,-33.634
0.156,0.951,0.024,-116.115,22.008,-30.008
0.170,0.931,0.031,-107.954,19.496,-24.626
0.178,0.933,0.039,-97.595,26.336,-18.733
0.173,0.936,0.058,-88.405,35.061,-13.702
0.147,0.930,0.092,-79.916,37.817,-10.443
0.134,0.960,0.123,-76.405,35.435,-9.565
0.121,0.980,0.145,-76.321,30.435,-10.344
0.116,1.007,0.152,-77.809,22.076,-11.344
0.114,1.004,0.155,-78.641,13.603,-10.702
0.108,0.992,0.166,-79.725,6.115,-7.733
0.131,0.996,0.163,-80.145,1.542,-2.504
0.137,0.987,0.164,-79.519,0.008,2.618
0.136,0.965,0.155,-77.969,2.908,6.336
0.154,0.954,0.165,-75.023,9.267,8.183
0.148,0.940,0.177,-72.855,14.817,7.061
0.160,0.941,0.196,-72.786,16.817,4.504
0.153,0.944,0.200,-73.969,17.252,1.191
0.148,0.945,0.215,-75.191,16.679,-2.565
0.142,0.940,0.210,-75.198,18.145,-6.298
0.147,0.946,0.232,-75.061,20.229,-8.359
0.136,0.942,0.260,-74.748,20.802,-8.344
0.132,0.943,0.258,-74.954,23.099,-6.962
0.135,0.939,0.277,-73.771,28.458,-5.656
0.134,0.926,0.279,-71.756,35.038,-4.115
0.138,0.931,0.313,-69.443,42.779,-2.863
0.149,0.927,0.315,-67.275,50.489,-2.740
0.140,0.925,0.347,-63.023,57.336,-3.802
0.121,0.907,0.374,-57.305,56.901,-5.374
0.101,0.895,0.389,-51.023,53.534,-7.466
0.103,0.886,0.419,-44.099,47.702,-8.527
0.094,0.888,0.449,-38.443,39.107,-9.153
0.090,0.896,0.442,-33.122,30.092,-9.000
0.083,0.914,0.447,-28.595,24.824,-8.985
0.075,0.913,0.457,-25.420,20.924,-8.718
0.089,0.917,0.451,-22.397,18.626,-7.137
0.087,0.916,0.455,-19.901,18.656,-4.947
0.082,0.921,0.449,-17.366,19.519,-2.809
0.079,0.913,0.455,-14.740,19.534,-0.863
0.086,0.910,0.450,-12.893,17.298,0.725
0.085,0.907,0.444,-10.977,12.794,2.237
0.090,0.903,0.435,-9.069,9.191,3.015
0.104,0.895,0.436,-7.298,6.053,3.489
0.103,0.888,0.430,-6.595,2.664,3.565
0.107,0.883,0.411,-6.351,-0.618,2.641
0.120,0.893,0.401,-6.183,-0.534,0.794
0.124,0.888,0.393,-5.985,3.718,-1.282
0.129,0.886,0.374,-6.061,8.374,-3.405
0.129,0.886,0.369,-6.641,11.908,-5.328
0.121,0.884,0.365,-7.550,14.107,-6.962
0.112,0.885,0.363,-9.130,16.557,-7.885
0.102,0.899,0.360,-10.420,18.061,-9.061
0.100,0.897,0.367,-11.489,18.229,-10.023

0.021,0.963,0.829,69.458,35.092,12.298
-0.044,0.944,0.935,92.756,22.832,12.863
-0.108,0.889,1.002,128.824,2.420,16.542
-0.152,0.866,1.069,173.351,-21.893,24.511
-0.195,0.851,1.071,222.756,-47.237,35.641
-0.228,0.814,1.028,250.130,-75.641,49.481
-0.189,0.862,0.907,250.130,-100.473,63.901
-0.179,0.773,0.802,250.130,-108.069,76.290
-0.232,0.614,0.652,250.130,-133.977,88.389
-0.097,0.706,0.528,250.130,-151.489,94.832
-0.093,0.631,0.361,250.130,-171.107,97.267
-0.020,0.589,0.159,250.130,-194.977,94.977
0.041,0.553,-0.018,250.130,-206.962,89.046
0.074,0.518,-0.191,250.130,-210.863,80.130
0.125,0.431,-0.404,250.130,-206.000,70.168
0.140,0.362,-0.558,250.130,-193.191,62.435
0.184,0.330,-0.823,250.130,-175.176,54.679
0.218,0.262,-0.989,250.130,-147.748,48.466
0.242,0.239,-1.123,250.130,-98.656,41.695
0.272,0.222,-1.278,250.130,-52.397,37.817
0.250,0.211,-1.358,250.130,-12.901,33.656
0.257,0.221,-1.427,250.130,17.763,29.534
0.263,0.236,-1.464,250.130,33.649,25.366
0.239,0.222,-1.499,250.130,34.168,18.511
0.216,0.225,-1.496,218.817,25.954,8.420
0.202,0.235,-1.520,150.130,13.351,-6.252
0.202,0.259,-1.503,81.198,1.733,-21.740
0.187,0.264,-1.479,29.336,-5.840,-32.366
0.147,0.279,-1.437,-19.450,-14.542,-41.252
0.122,0.284,-1.379,-67.870,-23.992,-48.237
0.102,0.329,-1.294,-111.282,-30.565,-51.664
0.094,0.353,-1.267,-146.992,-34.191,-51.916
0.072,0.376,-1.216,-176.382,-35.603,-50.901
0.054,0.403,-1.144,-201.137,-33.496,-46.847
0.061,0.430,-1.091,-217.359,-23.809,-40.542
0.061,0.476,-1.001,-227.550,-8.611,-33.069
0.075,0.504,-0.937,-232.748,5.015,-24.649
0.081,0.549,-0.863,-234.176,14.458,-16.992
0.083,0.580,-0.782,-232.794,18.870,-10.840
0.088,0.614,-0.733,-230.076,21.244,-7.298
0.102,0.656,-0.683,-226.031,24.374,-5.550
0.103,0.697,-0.626,-220.191,28.985,-4.534
0.106,0.741,-0.577,-213.710,34.779,-4.748
0.109,0.770,-0.546,-206.130,42.786,-5.695
0.115,0.810,-0.494,-197.794,52.290,-6.977
0.114,0.856,-0.425,-190.969,58.282,-7.870
0.122,0.875,-0.385,-183.664,60.305,-8.656
0.115,0.898,-0.345,-176.824,58.298,-8.557
0.119,0.917,-0.310,-170.153,55.206,-8.244
0.120,0.918,-0.287,-163.550,52.679,-6.893
0.117,0.919,-0.263,-155.328,49.351,-5.282
0.127,0.918,-0.246,-147.374,46.542,-3.099
0.140,0.940,-0.237,-141.924,47.336,-2.099
0.116,0.960,-0.191,-137.649,48.229,-1.962
0.117,0.970,-0.171,-133.405,47.069,-2.298
0.112,0.965,-0.146,-129.389,42.466,-2.267
0.116,0.967,-0.135,-125.298,37.504,-0.840
0.134,0.971,-0.120,-120.794,33.969,1.466
0.156,0.984,-0.123,-114.687,33.344,4.412
0.164,0.973,-0.104,-109.366,33.122,6.092
0.171,0.969,-0.103,-103.817,30.740,8.061
0.181,0.959,-0.092,-98.137,27.908,9.031
0.191,0.950,-0.078,-95.664,24.733,9.710
0.204,0.955,-0.071,-94.351,23.634,9.397
0.197,0.960,-0.057,-93.947,22.412,8.053
0.203,0.967,-0.060,-96.641,21.313,5.351
0.198,0.971,-0.051,-96.321,21.939,2.420
0.204,0.967,-0.047,-100.275,25.511,0.427
0.199,0.953,-0.060,-102.221,27.550,-1.282
0.226,0.961,-0.044,-102.000,34.206,-2.443
0.235,0.963,-0.021,-102.031,41.076,-3.687
0.218,0.966,0.009,-101.969,47.389,-5.954
0.205,0.952,0.050,-102.244,48.718,-8.786
0.187,0.948,0.066,-103.534,49.000,-11.672
0.186,0.959,0.092,-105.420,50.344,-14.450
0.178,0.949,0.115,-106.221,50.962,-15.855
0.168,0.944,0.128,-106.733,50.809,-17.534
0.159,0.940,0.145,-107.962,49.832,-18.672
0.163,0.938,0.170,-108.328,48.725,-18.817
0.158,0.939,0.175,-107.702,46.176,-18.504
0.147,0.927,0.193,-104.985,44.718,-19.321
0.156,0.931,0.221,-101.344,48.008,-20.450
0.154,0.939,0.235,-96.031,49.878,-21.313
0.143,0.922,0.270,-95.229,50.870,-23.351
0.134,0.909,0.291,-90.099,51.985,-25.267
0.111,0.917,0.327,-87.076,51.977,-27.000
0.112,0.903,0.331,-84.405,51.511,-29.382
0.101,0.906,0.351,-81.649,52.237,-30.725
0.097,0.918,0.365,-79.061,51.511,-32.221
0.084,0.913,0.361,-76.153,50.038,-33.229
0.074,0.911,0.378,-73.069,47.351,-33.298
0.067,0.896,0.392,-68.992,44.794,-32.481
0.052,0.898,0.392,-65.496,41.046,-31.450
0.047,0.893,0.405,-61.908,36.321,-30.206
0.028,0.890,0.418,-59.153,32.817,-29.328
0.021,0.890,0.420,-56.344,29.573,-29.145
0.007,0.882,0.438,-53.794,24.832,-28.634
-0.001,0.898,0.439,-50.069,21.168,-27.985
-0.006,0.894,0.446,-45.221,19.992,-25.824
-0.019,0.882,0.455,-41.053,18.855,-23.160
-0.013,0.893,0.456,-36.718,17.061,-19.992
-0.021,0.892,0.481,-31.580,15.527,-16.756
-0.026,0.886,0.476,-27.550,14.519,-13.947
-0.037,0.893,0.477,-23.901,11.863,-11.947
-0.035,0.881,0.493,-20.649,9.634,-9.435
-0.031,0.877,0.500,-17.969,7.336,-7.260
-0.035,0.879,0.499,-15.160,3.656,-5.061
-0.030,0.878,0.491,-12.740,1.573,-3.389
-0.032,0.865,0.480,-10.229,0.817,-2.351
-0.017,0.867,0.477,-7.779,0.397,-1.160
-0.016,0.870,0.473,-5.954,0.198,-0.687
-0.005,0.862,0.469,-4.321,0.061,-0.099
-0.004,0.870,0.469,-2.565,-0.458,0.038
0.002,0.864,0.458,-1.137,-0.023,0.092
-0.001,0.859,0.445,-0.565,-0.298,-0.313
0.005,0.860,0.447,-0.557,-1.466,-0.611
0.005,0.872,0.441,-0.878,-1.252,-0.786
0.012,0.871,0.422,-1.046,0.962,-1.275
0.006,0.869,0.432,-1.092,3.313,-1.794

-0.029,0.896,0.855,85.099,22.321,11.565
-0.069,0.848,0.961,114.473,10.229,15.725
-0.084,0.848,1.053,146.832,-4.221,20.878
-0.133,0.869,1.109,181.336,-23.023,25.794
-0.192,0.848,1.182,219.191,-52.000,29.702
-0.198,0.779,1.189,250.130,-93.115,39.183
-0.205,0.768,1.084,250.130,-129.733,47.000
-0.214,0.715,0.998,250.130,-151.733,51.611
-0.188,0.699,0.801,250.130,-160.595,52.977
-0.127,0.689,0.605,250.130,-163.435,54.565
-0.115,0.632,0.427,250.130,-166.031,56.435
-0.083,0.605,0.219,250.130,-174.649,56.435
-0.048,0.585,0.009,250.130,-183.672,54.160
-0.030,0.548,-0.203,250.130,-191.397,49.786
0.005,0.510,-0.430,250.130,-190.595,44.061
0.056,0.457,-0.729,250.130,-168.198,37.412
0.089,0.425,-0.866,250.130,-128.244,34.802
0.080,0.399,-1.035,250.130,-94.939,34.809
0.093,0.365,-1.175,250.130,-67.878,35.908
0.067,0.349,-1.257,250.130,-41.893,36.771
0.095,0.330,-1.398,250.130,-19.962,36.252
0.111,0.350,-1.481,250.130,-0.046,34.130
0.101,0.372,-1.503,249.611,17.076,28.794
0.087,0.388,-1.482,194.969,26.809,20.656
0.069,0.404,-1.483,136.863,24.214,10.412
0.050,0.393,-1.448,79.031,11.672,0.137
0.039,0.397,-1.404,17.450,-3.802,-10.191
0.041,0.388,-1.365,-25.221,-13.351,-16.214
0.032,0.391,-1.317,-66.550,-15.901,-21.573
0.026,0.397,-1.251,-102.473,-12.198,-26.160
0.005,0.409,-1.157,-130.916,-8.809,-29.214
-0.005,0.426,-1.078,-150.092,-5.084,-29.802
0.000,0.437,-1.017,-161.061,-1.328,-28.466
0.007,0.472,-0.973,-167.641,2.382,-26.000
0.017,0.496,-0.911,-170.931,6.779,-22.519
0.043,0.526,-0.886,-172.252,13.321,-18.771
0.043,0.568,-0.814,-172.122,22.053,-15.901
0.060,0.628,-0.771,-171.573,31.542,-14.618
0.062,0.680,-0.711,-172.649,37.366,-13.794
0.075,0.736,-0.661,-175.725,39.832,-12.611
0.100,0.802,-0.602,-180.389,41.076,-10.672
0.100,0.839,-0.560,-186.107,42.817,-9.046
0.102,0.870,-0.524,-191.374,43.588,-9.443
0.103,0.893,-0.475,-195.473,45.397,-10.458
0.097,0.911,-0.416,-198.336,50.702,-11.687
0.106,0.926,-0.378,-200.450,55.779,-12.733
0.096,0.936,-0.327,-201.908,56.107,-13.344
0.098,0.937,-0.284,-202.954,54.038,-13.733
0.092,0.924,-0.226,-202.756,50.649,-13.878
0.090,0.928,-0.193,-200.687,47.389,-14.359
0.105,0.922,-0.175,-196.420,45.015,-14.298
0.107,0.928,-0.140,-190.458,47.145,-14.405
0.100,0.924,-0.089,-182.824,50.252,-14.443
0.082,0.922,-0.067,-174.931,51.389,-15.260
0.076,0.940,-0.032,-167.260,50.153,-16.580
0.062,0.928,-0.002,-159.779,49.023,-18.328
0.050,0.938,0.008,-153.366,46.252,-19.893
0.041,0.937,0.036,-148.023,42.313,-20.695
0.048,0.950,0.046,-142.588,38.733,-20.779
0.051,0.958,0.053,-137.397,36.229,-20.481
0.062,0.971,0.072,-133.290,36.252,-19.176
0.057,0.985,0.088,-131.015,38.351,-18.000
0.047,0.988,0.109,-129.863,38.351,-17.389
0.042,0.988,0.124,-128.824,36.160,-16.771
0.036,0.977,0.163,-128.099,32.771,-15.458
0.022,0.974,0.177,-126.412,24.267,-13.740
0.019,0.959,0.205,-124.679,16.931,-11.282
0.032,0.944,0.213,-122.038,11.099,-7.962
0.028,0.950,0.233,-119.779,6.794,-5.733
0.034,0.948,0.247,-116.992,5.313,-2.954
0.027,0.932,0.266,-114.313,4.542,0.221
0.030,0.927,0.278,-111.206,4.916,2.573
0.051,0.936,0.280,-107.008,10.687,4.122
0.049,0.931,0.306,-101.420,19.527,4.305
0.052,0.922,0.329,-95.435,26.176,4.397
0.046,0.915,0.366,-90.458,28.824,3.580
0.044,0.903,0.383,-86.305,27.779,3.168
0.043,0.913,0.400,-82.573,23.527,1.863
0.041,0.896,0.427,-78.389,17.656,0.153
0.046,0.902,0.444,-74.611,13.565,-0.679
0.055,0.892,0.432,-70.985,11.328,-1.557
0.062,0.876,0.449,-67.153,10.687,-2.008
0.060,0.878,0.457,-63.893,12.405,-4.298
0.070,0.885,0.459,-59.847,16.649,-6.252
0.055,0.880,0.459,-54.771,21.382,-8.321
0.045,0.871,0.475,-49.702,22.962,-9.519
0.037,0.871,0.480,-45.802,22.229,-9.985
0.042,0.882,0.485,-41.504,20.061,-9.901
0.024,0.883,0.488,-36.863,17.527,-9.084
0.017,0.866,0.499,-32.695,14.763,-8.427
0.013,0.863,0.507,-29.061,12.076,-7.595
0.013,0.866,0.501,-26.168,10.046,-7.038
0.019,0.868,0.495,-23.519,9.214,-6.496
0.007,0.871,0.506,-19.992,8.824,-5.756
0.008,0.867,0.513,-16.496,8.298,-5.237
0.007,0.860,0.503,-13.015,7.679,-5.389
0.010,0.861,0.508,-10.618,6.366,-5.122
0.007,0.864,0.491,-9.069,6.397,-5.137
-0.002,0.868,0.471,-7.420,3.908,-5.198
-0.002,0.868,0.482,-5.420,1.290,-4.870
0.000,0.857,0.477,-3.351,1.160,-4.336
0.003,0.869,0.478,-1.847,2.672,-3.939
0.000,0.863,0.463,-0.855,3.076,-3.366
-0.006,0.866,0.460,0.053,1.481,-2.344
-0.002,0.858,0.446,0.992,0.023,-1.450
0.008,0.874,0.439,1.420,0.687,-1.542
0.012,0.861,0.434,2.298,2.649,-0.641
0.001,0.855,0.442,2.107,2.450,-0.076
0.006,0.858,0.433,1.603,1.176,0.527
0.009,0.863,0.423,1.511,-0.191,0.595
0.011,0.856,0.413,1.023,-0.763,0.389
0.019,0.857,0.417,1.099,1.183,0.191
0.017,0.859,0.420,0.351,5.252,-0.046
0.017,0.865,0.415,-1.160,7.267,-0.206
0.013,0.861,0.406,-2.794,7.000,-0.595
0.015,0.854,0.419,-3.885,7.679,-0.702
0.023,0.862,0.418,-5.221,8.840,-0.870
0.026,0.861,0.411,-6.290,9.023,-1.061
0.021,0.857,0.419,-6.664,8.870,-1.061

-0.020,0.921,0.907,47.427,36.214,9.130
-0.062,0.865,0.962,69.122,29.565,10.756
-0.130,0.788,1.078,101.504,13.450,13.061
-0.131,0.862,1.169,135.214,0.160,16.969
-0.178,0.844,1.229,177.725,-20.313,21.504
-0.211,0.746,1.310,223.290,-40.511,29.908
-0.202,0.789,1.322,250.130,-56.389,40.954
-0.246,0.739,1.277,250.130,-81.672,56.229
-0.282,0.602,1.189,250.130,-112.557,71.817
-0.279,0.524,1.038,250.130,-146.168,84.237
-0.248,0.458,0.849,250.130,-171.412,91.084
-0.208,0.387,0.622,250.130,-197.298,94.489
-0.204,0.385,0.313,250.130,-230.939,93.840
-0.109,0.295,0.086,250.130,-250.137,88.679
-0.103,0.183,-0.169,250.130,-250.137,78.847
-0.039,0.138,-0.478,250.130,-250.137,65.397
0.043,0.156,-0.830,250.130,-250.137,50.351
0.143,0.194,-1.200,250.130,-198.092,41.611
0.139,0.088,-1.474,250.130,-119.389,40.244
0.117,-0.024,-1.707,250.130,-30.374,43.550
0.116,0.021,-1.788,250.130,51.023,48.817
0.181,0.257,-1.617,250.130,90.267,60.794
0.110,0.075,-1.831,250.130,93.718,59.847
0.098,0.025,-1.802,250.130,93.183,43.779
0.135,0.160,-1.757,191.015,78.397,23.389
0.175,0.216,-1.677,95.183,46.809,1.397
0.092,0.164,-1.592,2.748,0.626,-20.855
0.082,0.153,-1.534,-81.061,-43.733,-39.908
0.081,0.178,-1.511,-148.458,-69.809,-53.603
0.063,0.196,-1.443,-199.053,-74.061,-63.038
0.010,0.207,-1.337,-239.962,-68.626,-69.244
-0.014,0.249,-1.248,-250.137,-62.702,-71.015
-0.022,0.302,-1.157,-250.137,-54.473,-69.076
-0.010,0.342,-1.079,-250.137,-38.229,-62.901
0.004,0.361,-1.017,-250.137,-18.817,-54.153
0.020,0.382,-0.972,-250.137,4.366,-45.221
0.020,0.412,-0.867,-250.137,27.573,-36.504
0.043,0.465,-0.780,-250.137,49.809,-29.412
0.049,0.534,-0.686,-245.695,70.267,-23.565
0.048,0.599,-0.588,-228.458,82.298,-20.107
0.053,0.670,-0.503,-213.176,85.832,-18.107
0.050,0.743,-0.437,-201.443,80.702,-16.977
0.046,0.809,-0.376,-192.962,72.427,-17.382
0.044,0.854,-0.333,-187.107,64.924,-17.718
0.052,0.894,-0.316,-183.176,58.634,-17.573
0.053,0.926,-0.278,-180.122,55.588,-15.908
0.061,0.954,-0.256,-177.885,55.397,-13.809
0.061,0.965,-0.233,-176.053,56.153,-12.626
0.063,0.977,-0.193,-173.634,56.519,-11.206
0.065,0.978,-0.154,-171.786,55.076,-9.878
0.063,0.968,-0.138,-169.382,51.977,-8.916
0.059,0.955,-0.119,-166.985,49.023,-8.260
0.056,0.958,-0.100,-163.939,47.344,-8.229
0.066,0.967,-0.069,-160.298,46.504,-8.550
0.065,0.970,-0.047,-156.908,46.527,-9.664
0.059,0.979,-0.019,-154.832,43.489,-11.252
0.070,0.980,-0.001,-151.756,40.802,-13.099
0.065,0.978,0.017,-148.267,37.313,-14.725
0.075,0.977,0.032,-144.046,36.534,-15.695
0.078,0.967,0.032,-139.267,38.504,-16.763
0.076,0.974,0.051,-133.603,42.809,-18.588
0.065,0.970,0.070,-127.885,47.015,-20.092
0.064,0.976,0.089,-122.634,50.511,-21.305
0.058,0.980,0.118,-117.679,51.405,-21.954
0.052,0.989,0.146,-112.046,53.725,-21.847
0.036,0.975,0.180,-106.389,52.779,-21.122
0.029,0.972,0.198,-100.366,48.664,-19.130
0.032,0.973,0.226,-95.366,43.962,-16.817
0.031,0.966,0.234,-89.496,40.214,-14.198
0.020,0.960,0.239,-84.496,38.336,-12.725
0.023,0.973,0.266,-79.885,37.771,-11.664
0.025,0.969,0.274,-75.382,35.519,-10.756
0.012,0.959,0.292,-71.366,29.954,-9.847
-0.000,0.956,0.303,-67.969,22.466,-9.550
0.016,0.962,0.292,-64.282,15.557,-9.221
0.014,0.945,0.288,-58.969,12.000,-8.382
0.013,0.948,0.303,-54.450,7.366,-6.977
0.005,0.944,0.316,-50.023,3.595,-5.466
0.002,0.941,0.303,-46.176,2.702,-5.336
0.022,0.951,0.295,-42.221,7.802,-5.115
0.008,0.943,0.300,-38.603,11.901,-5.344
0.008,0.944,0.316,-36.084,13.962,-5.504
0.005,0.947,0.323,-33.557,14.763,-5.679
-0.008,0.944,0.317,-31.244,12.939,-6.214
-0.011,0.939,0.319,-29.183,10.053,-6.634
-0.018,0.942,0.326,-28.107,6.496,-6.496
-0.019,0.948,0.311,-27.779,2.565,-6.511
-0.011,0.943,0.308,-28.229,-0.069,-6.565
0.004,0.948,0.305,-28.023,2.649,-5.664
-0.005,0.928,0.308,-27.573,5.595,-5.351
-0.009,0.933,0.322,-27.756,8.351,-5.496
-0.005,0.937,0.320,-27.580,9.420,-5.534
-0.019,0.927,0.320,-27.000,9.336,-5.580
-0.015,0.929,0.318,-26.061,8.832,-5.771
-0.016,0.924,0.322,-24.985,8.603,-5.153
-0.019,0.912,0.327,-24.206,8.198,-4.725
-0.025,0.926,0.330,-24.061,6.756,-4.405
-0.022,0.927,0.331,-23.863,6.382,-4.053
-0.014,0.920,0.330,-23.550,7.229,-3.183
-0.011,0.913,0.333,-23.214,9.107,-2.260
-0.010,0.912,0.326,-22.649,10.603,-2.511
-0.011,0.913,0.338,-22.435,14.053,-2.824
-0.017,0.915,0.336,-21.870,17.053,-3.420
-0.023,0.910,0.352,-21.214,17.092,-3.756
-0.019,0.914,0.359,-20.710,15.618,-3.901
-0.022,0.902,0.357,-19.847,13.916,-3.466
-0.030,0.909,0.371,-19.504,12.252,-3.580
-0.030,0.903,0.377,-19.076,9.542,-3.122
-0.020,0.895,0.368,-19.023,7.618,-2.115
-0.023,0.904,0.374,-18.763,6.313,-1.321
