aX,aY,aZ,gX,gY,gZ
-0.212,-0.056,0.950,-0.626,-9.466,0.061
-0.030,-0.033,0.925,-0.779,1.237,-0.527
-0.123,-0.054,0.821,0.214,1.176,-0.580
-0.095,-0.040,0.993,-0.458,3.153,-0.489
-0.113,-0.043,0.861,-1.061,2.855,-0.542
-0.104,-0.046,0.945,-0.809,4.893,-0.382
-0.119,-0.058,0.898,0.672,-2.481,-0.481
-0.118,-0.052,0.904,1.939,-5.511,-0.115
-0.056,-0.032,0.927,0.542,0.832,-0.130
-0.090,-0.041,0.837,-3.298,9.397,-1.137
-0.132,-0.055,0.947,-0.954,5.107,-0.573
-0.122,-0.055,0.907,1.985,-6.412,-0.168
-0.070,-0.034,0.855,-0.389,3.122,-0.519
-0.085,-0.039,0.948,-2.817,10.107,-0.763
-0.130,-0.051,0.909,-0.183,1.443,-0.443
-0.097,-0.045,0.897,-0.160,1.420,-0.542
-0.083,-0.041,0.901,-1.718,5.718,-0.656
-0.107,-0.047,0.915,-0.939,5.008,-0.649
-0.114,-0.043,0.914,-0.038,0.550,-0.511
-0.080,-0.044,0.881,-0.771,3.931,-0.656
-0.103,-0.048,0.900,-1.328,4.824,-0.672
-0.110,-0.052,0.920,0.298,0.634,-0.313
-0.092,-0.042,0.894,-0.519,2.634,-0.504
-0.095,-0.044,0.898,-1.321,6.611,-0.672
-0.107,-0.056,0.920,-0.420,2.603,-0.450
-0.103,-0.048,0.889,-0.893,3.397,-0.779
-0.110,-0.051,0.912,-1.176,5.229,-0.672
-0.094,-0.051,0.896,-1.229,5.542,-0.649
-0.101,-0.041,0.882,-2.733,9.336,-0.954
-0.098,-0.047,0.918,-2.947,11.603,-0.863
-0.054,-0.059,0.775,-0.420,3.405,-0.725
-0.089,-0.042,0.867,-1.427,4.992,-0.672
-0.085,-0.056,0.852,-0.534,3.000,-0.626
-0.105,-0.042,0.901,-0.527,2.313,-0.550
-0.100,-0.051,0.904,-1.038,3.359,-0.534
-0.097,-0.050,0.901,-1.328,4.565,-0.573
-0.112,-0.047,0.902,-0.931,3.313,-0.542
-0.096,-0.047,0.904,-0.931,3.863,-0.557
-0.114,-0.049,0.902,-1.160,2.824,-0.527
-0.110,-0.047,0.912,-0.901,3.427,-0.527
-0.104,-0.047,0.904,-1.046,3.718,-0.519
-0.105,-0.043,0.896,-0.885,3.802,-0.534
-0.103,-0.049,0.895,-0.779,4.267,-0.580
-0.113,-0.051,0.897,-0.626,3.687,-0.718
-0.107,-0.046,0.893,-0.489,2.802,-0.588
-0.105,-0.048,0.904,-0.450,3.198,-0.740
-0.103,-0.045,0.896,-0.786,3.397,-0.641
-0.107,-0.048,0.905,-0.656,3.550,-0.435
-0.102,-0.046,0.900,-0.824,3.427,-0.725
-0.114,-0.043,0.904,-0.863,3.748,-0.809
-0.173,0.003,0.907,-0.954,4.870,-3.313
-0.109,-0.037,0.889,-0.588,5.794,-4.573
-0.089,-0.074,0.890,-0.603,4.702,-3.641
-0.062,-0.066,0.905,-0.504,3.718,-2.405
-0.091,-0.059,0.896,-0.519,3.053,-1.328
-0.093,-0.050,0.894,-0.565,2.832,-0.863
-0.098,-0.053,0.903,-0.565,2.992,-1.099
-0.103,-0.055,0.907,-0.649,3.176,-0.832
-0.101,-0.056,0.894,-0.504,3.046,-0.580
-0.099,-0.051,0.905,-0.756,3.351,-0.496
-0.105,-0.046,0.909,-0.718,3.481,-0.626
-0.100,-0.051,0.903,-0.771,3.870,-0.626
-0.107,-0.049,0.897,-0.725,3.542,-0.511
-0.101,-0.046,0.898,-0.702,3.664,-0.649
-0.104,-0.047,0.905,-0.710,3.382,-0.649
-0.103,-0.052,0.905,-0.771,3.534,-0.718
-0.104,-0.050,0.900,-0.916,3.901,-0.641
-0.109,-0.048,0.895,-0.756,3.924,-0.427
-0.102,-0.054,0.904,-0.802,3.534,-0.489
-0.103,-0.045,0.901,-0.748,3.649,-0.565
-0.103,-0.054,0.900,-0.817,3.718,-0.573
-0.100,-0.051,0.903,-0.802,4.092,-0.603
-0.105,-0.047,0.907,-0.847,3.718,-0.565
-0.103,-0.049,0.896,-0.786,3.618,-0.496
-0.105,-0.050,0.907,-0.985,3.786,-0.557
-0.102,-0.040,0.900,-1.206,4.863,-0.611
-0.129,0.000,0.898,-0.908,2.191,-0.443
-0.129,0.036,0.911,-1.374,2.817,-0.221
-0.118,0.045,0.896,-2.038,5.618,0.710
-0.137,0.008,0.954,-3.962,-3.618,3.115
-0.075,-0.044,0.947,-7.008,-5.015,4.336
-0.113,-0.128,1.003,-4.519,-18.183,5.382
-0.080,-0.072,0.921,-3.069,-28.382,6.611
-0.039,-0.026,0.953,-7.641,-21.908,6.656
-0.048,-0.095,0.969,-13.336,-13.863,5.473
-0.061,-0.095,0.968,-18.298,-7.374,2.412
-0.060,-0.071,0.931,-22.618,-1.458,-0.771
-0.054,-0.077,0.939,-23.099,-3.664,-4.321
-0.016,-0.096,0.922,-20.901,-11.771,-5.244
0.047,-0.117,0.861,-20.901,-8.565,-4.733
0.000,-0.160,0.915,-19.153,7.183,-7.252
-0.040,-0.146,0.974,-16.656,21.099,-13.748
-0.062,-0.115,0.981,-11.122,34.366,-20.397
-0.091,-0.109,0.987,-4.580,36.511,-21.924
-0.120,-0.107,0.986,3.351,35.168,-19.389
-0.155,-0.093,1.003,9.885,36.382,-16.580
-0.169,-0.068,1.012,16.168,36.603,-13.931
-0.141,-0.072,1.003,21.809,30.870,-9.573
-0.126,-0.081,0.994,28.038,22.313,-2.847
-0.119,-0.079,0.993,34.023,13.802,3.733
-0.124,-0.052,1.005,37.733,5.160,7.115
-0.114,-0.051,0.998,40.015,0.756,8.534
-0.126,-0.058,0.972,41.527,0.519,8.435
-0.124,-0.071,0.958,42.725,4.099,7.763
-0.127,-0.086,0.936,43.092,9.588,7.435
-0.150,-0.079,0.924,41.809,15.962,9.267
-0.174,-0.074,0.908,38.466,19.962,12.740
-0.190,-0.049,0.881,34.779,19.786,16.664
-0.182,-0.050,0.886,30.733,18.702,19.954
-0.168,-0.068,0.868,27.420,18.893,23.954
-0.161,-0.068,0.856,24.649,18.740,27.557
-0.160,-0.069,0.858,21.153,19.153,29.969
-0.164,-0.042,0.860,17.122,19.466,30.595
-0.154,-0.031,0.856,11.611,19.817,30.641
-0.156,-0.027,0.870,7.145,19.405,30.985
-0.171,-0.026,0.864,3.634,20.305,32.160
-0.190,-0.023,0.896,0.702,21.298,35.023
-0.198,-0.020,0.906,-2.046,23.557,38.672
-0.224,-0.036,0.918,-4.336,24.458,43.878

-1.115,0.608,0.127,68.840,54.412,-250.137
-1.252,0.700,0.077,46.840,36.611,-250.137
-1.395,0.823,0.048,22.824,26.351,-250.137
-1.538,0.873,0.036,-0.458,25.145,-250.137
-1.631,0.958,0.021,-19.122,24.153,-241.847
-1.748,0.984,0.052,-31.099,30.015,-186.366
-1.805,1.000,0.120,-36.603,32.756,-128.115
-1.811,0.984,0.146,-39.450,29.824,-72.061
-1.759,0.948,0.203,-42.275,23.130,-23.916
-1.655,0.890,0.266,-43.817,20.405,15.359
-1.547,0.842,0.320,-40.221,22.550,45.466
-1.487,0.789,0.371,-28.321,29.198,68.786
-1.398,0.735,0.410,-10.969,36.809,89.733
-1.280,0.688,0.459,8.366,39.084,115.687
-1.181,0.679,0.483,20.137,32.206,133.489
-1.118,0.632,0.478,28.992,24.053,144.313
-1.041,0.587,0.478,35.863,16.901,155.466
-0.932,0.589,0.473,39.321,10.252,169.107
-0.871,0.598,0.471,42.397,4.947,178.511
-0.821,0.598,0.460,44.664,-1.832,184.084
-0.771,0.608,0.457,44.588,-13.160,188.252
-0.722,0.633,0.416,43.802,-20.954,191.504
-0.659,0.654,0.373,42.985,-21.206,194.809
-0.615,0.659,0.328,42.947,-16.618,199.527
-0.553,0.673,0.312,40.519,-14.817,206.031
-0.482,0.682,0.311,37.061,-13.412,210.382
-0.415,0.668,0.312,32.237,-15.466,212.748
-0.329,0.678,0.295,28.786,-14.046,211.496
-0.272,0.681,0.303,26.931,-11.458,206.244
-0.213,0.673,0.312,26.977,-10.015,198.725
-0.151,0.684,0.314,29.183,-8.076,190.580
-0.097,0.701,0.290,32.992,-3.267,180.748
-0.060,0.721,0.286,35.878,-0.282,172.053
-0.006,0.735,0.271,38.076,2.214,164.977
0.030,0.752,0.267,39.763,6.191,159.313
0.046,0.781,0.276,39.947,8.756,153.145
0.061,0.784,0.281,37.565,3.344,145.046
0.081,0.796,0.265,33.870,-8.084,136.641
0.103,0.807,0.260,29.824,-16.969,126.435
0.108,0.833,0.222,26.313,-21.153,115.130
0.101,0.839,0.216,23.359,-22.672,104.450
0.096,0.860,0.197,20.573,-22.183,96.756
0.092,0.875,0.184,18.725,-19.229,92.489
0.109,0.898,0.176,16.870,-15.794,90.947
0.139,0.896,0.146,17.435,-7.702,90.160
0.177,0.863,0.113,17.076,-0.489,88.473
0.146,0.929,0.187,18.427,4.901,88.550
0.157,0.883,0.191,20.008,7.969,84.962
0.174,0.887,0.213,19.748,6.817,77.534
0.179,0.894,0.206,18.366,0.305,69.359
0.187,0.902,0.199,18.191,-3.977,61.099
0.176,0.910,0.186,19.290,-2.977,53.863
0.165,0.913,0.174,20.542,-1.252,50.344
0.164,0.922,0.169,20.328,-1.405,49.313
0.182,0.929,0.167,19.221,-0.412,50.191
0.192,0.922,0.159,17.511,-0.351,51.626
0.201,0.922,0.159,14.496,-2.511,51.519
0.209,0.914,0.156,10.992,-7.153,49.588
0.218,0.912,0.141,6.924,-12.084,45.496
0.241,0.932,0.140,3.405,-14.298,40.847
0.245,0.933,0.128,0.565,-13.046,36.611
0.240,0.934,0.107,-1.107,-9.931,32.534
0.251,0.954,0.119,-2.244,-6.565,28.229
0.241,0.948,0.116,-2.473,-4.015,25.344
0.246,0.949,0.116,-2.611,-1.916,23.321
0.244,0.935,0.126,-3.389,1.328,21.893
0.245,0.920,0.148,-4.733,5.626,21.183
0.239,0.903,0.161,-5.817,9.565,20.321
0.235,0.914,0.164,-5.695,12.107,20.053
0.247,0.916,0.168,-3.992,12.176,19.450
0.249,0.919,0.186,-0.992,10.420,18.573
0.251,0.910,0.176,3.038,8.931,15.954
0.252,0.923,0.179,6.145,8.420,13.427
0.256,0.917,0.181,8.382,7.053,12.038
0.254,0.927,0.188,9.649,6.260,11.099
0.257,0.937,0.172,10.687,6.336,10.885
0.264,0.939,0.165,11.931,7.870,11.473
0.267,0.936,0.156,13.145,9.710,11.802
0.268,0.930,0.157,13.656,10.282,12.336
0.265,0.935,0.158,13.565,9.153,12.298
0.264,0.921,0.162,13.038,8.198,12.542
0.279,0.931,0.142,12.641,7.015,12.962
0.283,0.927,0.146,11.771,4.870,13.275
0.289,0.915,0.133,10.878,2.557,13.351
0.299,0.910,0.127,10.092,1.237,12.557
0.301,0.915,0.122,8.939,1.053,10.817
0.302,0.904,0.122,7.779,2.565,8.412
0.308,0.904,0.120,5.924,4.656,5.412
0.299,0.915,0.136,4.282,5.267,2.427
0.294,0.909,0.126,3.832,6.305,-0.137
0.300,0.920,0.121,4.252,7.740,-2.313
0.295,0.923,0.125,4.321,8.702,-4.947
0.296,0.922,0.123,3.901,8.786,-7.053
0.285,0.937,0.126,2.916,8.489,-9.504
0.271,0.940,0.127,1.969,11.176,-11.809
0.250,0.951,0.146,1.374,13.267,-13.023
0.241,0.959,0.140,1.328,13.924,-12.733
0.235,0.955,0.141,1.321,14.733,-11.603
0.221,0.958,0.158,1.450,15.893,-10.092
0.216,0.958,0.158,0.809,14.809,-8.282
0.212,0.965,0.183,-0.321,11.405,-6.725
0.209,0.955,0.173,-1.252,6.641,-5.580
0.221,0.952,0.175,-1.802,3.466,-4.496
0.213,0.956,0.165,-1.580,2.855,-3.855
0.218,0.956,0.171,-0.870,2.023,-3.305
0.224,0.954,0.167,-0.427,1.985,-2.534
0.225,0.963,0.166,0.176,1.618,-1.847
0.228,0.966,0.159,0.176,1.527,-1.053
0.232,0.963,0.159,0.366,1.450,-0.466
0.228,0.967,0.159,0.321,1.427,0.092
0.227,0.967,0.168,-0.153,0.290,0.802
0.230,0.965,0.166,-0.863,-1.794,1.405
0.232,0.956,0.157,-2.542,-5.702,1.443
0.234,0.952,0.150,-3.802,-9.305,1.084
0.241,0.950,0.141,-4.275,-9.153,0.763
0.235,0.960,0.137,-4.198,-6.275,0.527
0.238,0.949,0.127,-3.855,-3.481,1.763
0.243,0.948,0.132,-3.740,-1.748,2.809
0.242,0.946,0.142,-4.137,-1.076,3.061

-1.243,0.541,-0.072,-16.611,86.931,-250.137
-1.546,0.723,-0.013,-24.863,61.580,-250.137
-1.829,0.825,0.052,-40.435,15.252,-250.137
-1.948,0.880,0.077,-62.046,-29.160,-250.137
-1.914,0.982,0.056,-74.626,-34.695,-250.137
-2.000,1.031,0.126,-70.557,-23.115,-181.595
-2.000,1.069,0.130,-50.237,-5.809,-93.695
-2.000,1.056,0.173,-22.649,9.611,-10.901
-2.000,0.955,0.264,0.489,21.588,63.076
-1.843,0.871,0.343,13.519,17.229,122.679
-1.644,0.733,0.395,20.092,4.069,162.260
-1.419,0.631,0.431,24.481,-15.153,190.282
-1.225,0.561,0.460,29.450,-31.824,205.298
-1.017,0.505,0.447,37.191,-44.504,211.351
-0.885,0.486,0.422,43.496,-50.710,208.969
-0.771,0.481,0.382,49.718,-55.878,203.252
-0.682,0.509,0.344,53.153,-61.267,196.397
-0.606,0.547,0.253,53.679,-64.282,188.786
-0.529,0.607,0.170,52.389,-61.595,180.344
-0.481,0.629,0.110,51.840,-51.427,172.679
-0.437,0.654,0.098,49.107,-43.947,165.008
-0.394,0.680,0.057,45.740,-40.168,158.366
-0.364,0.696,0.035,42.954,-34.534,150.802
-0.350,0.715,0.009,41.137,-26.855,143.733
-0.332,0.733,-0.010,39.115,-17.000,136.221
-0.311,0.754,-0.020,36.061,-9.282,131.053
-0.300,0.785,-0.023,30.878,-3.771,125.710
-0.289,0.807,-0.019,25.733,-1.374,121.382
-0.280,0.820,-0.023,19.924,0.908,116.237
-0.263,0.849,-0.013,14.809,2.863,111.748
-0.249,0.864,-0.008,9.603,2.282,108.557
-0.241,0.875,0.009,4.084,0.198,106.473
-0.226,0.897,0.007,-0.275,0.595,105.420
-0.219,0.911,0.021,-3.099,5.122,104.336
-0.226,0.921,0.036,-3.771,9.557,104.008
-0.237,0.923,0.043,-3.382,14.527,104.458
-0.245,0.934,0.053,-2.061,20.137,107.786
-0.229,0.960,0.068,-0.275,24.038,112.992
-0.223,0.944,0.099,1.298,26.176,120.641
-0.196,0.948,0.125,2.099,19.206,128.802
-0.159,0.937,0.124,3.023,9.122,135.756
-0.117,0.914,0.155,2.053,-6.771,142.282
-0.063,0.916,0.146,-0.076,-25.893,147.115
-0.013,0.915,0.121,-1.855,-40.664,149.092
0.043,0.913,0.072,-2.321,-47.542,149.893
0.073,0.910,0.059,-0.756,-41.840,148.763
0.065,0.902,0.085,2.344,-31.427,145.763
0.095,0.937,0.044,5.237,-21.885,142.664
0.155,0.923,0.039,6.756,-15.282,141.168
0.164,0.928,0.042,8.160,-8.710,141.802
0.190,0.914,0.074,9.176,0.229,141.008
0.210,0.902,0.074,8.466,4.473,139.305
0.252,0.910,0.055,7.137,6.237,134.176
0.258,0.902,0.073,5.641,7.313,127.947
0.277,0.897,0.075,4.580,8.550,120.275
0.300,0.901,0.063,3.191,8.328,112.214
0.316,0.905,0.047,2.282,9.389,103.756
0.325,0.896,0.065,1.092,9.267,95.985
0.324,0.885,0.090,-0.031,7.405,88.137
0.351,0.903,0.068,-1.855,5.489,80.458
0.370,0.895,0.071,-4.145,3.267,71.748
0.376,0.898,0.070,-5.847,3.550,63.916
0.395,0.900,0.061,-6.649,5.389,56.000
0.408,0.905,0.068,-6.595,9.389,48.664
0.415,0.898,0.057,-6.382,12.870,41.397
0.426,0.896,0.069,-5.824,15.985,34.603
0.406,0.886,0.096,-4.954,18.038,27.198
0.408,0.888,0.099,-3.389,19.481,20.511
0.401,0.874,0.108,-2.679,18.336,14.756
0.394,0.886,0.117,-2.267,14.901,9.588
0.396,0.891,0.120,-2.550,9.221,5.565
0.392,0.893,0.125,-2.550,4.534,1.496
0.395,0.905,0.117,-2.740,2.015,-2.183
0.391,0.911,0.121,-2.565,1.649,-5.092
0.373,0.922,0.115,-2.252,2.794,-6.916
0.371,0.926,0.098,-1.153,3.863,-7.412
0.361,0.926,0.111,0.313,5.000,-7.443
0.356,0.928,0.106,1.916,7.069,-7.420
0.339,0.936,0.109,2.863,8.305,-7.153
0.331,0.936,0.122,2.992,7.290,-6.794
0.322,0.939,0.125,3.046,3.076,-6.214
0.316,0.931,0.121,2.985,-2.122,-5.473
0.309,0.937,0.107,3.450,-5.221,-5.084
0.317,0.941,0.108,3.992,-5.496,-4.595
0.314,0.942,0.101,4.656,-4.374,-4.023
0.303,0.950,0.105,5.176,-3.824,-2.878
0.298,0.941,0.097,5.160,-4.733,-1.824
0.297,0.943,0.092,5.137,-6.794,-0.580
0.301,0.945,0.081,5.290,-8.405,0.008
0.303,0.934,0.071,5.137,-8.351,-0.153
0.308,0.946,0.063,4.847,-5.954,-0.725
0.309,0.946,0.057,4.359,-3.878,-1.069
0.311,0.933,0.048,3.573,-2.221,-1.160
0.308,0.939,0.056,2.779,-1.092,-1.481
0.304,0.939,0.053,1.802,0.290,-2.183
0.308,0.942,0.046,0.634,2.000,-2.382
0.302,0.951,0.060,-0.908,3.046,-2.947
0.293,0.948,0.064,-1.947,3.794,-3.389
0.292,0.951,0.066,-2.763,4.695,-3.832
0.296,0.947,0.066,-3.351,4.763,-3.321
0.292,0.943,0.077,-3.221,4.473,-3.389
0.290,0.950,0.073,-3.542,4.504,-3.107
0.281,0.946,0.088,-4.221,2.725,-2.794
0.292,0.945,0.084,-4.466,0.641,-2.160
0.290,0.955,0.082,-4.817,-0.237,-1.489
0.294,0.952,0.080,-4.237,2.618,-0.672
0.290,0.953,0.079,-2.840,5.962,0.573
0.296,0.954,0.093,-1.824,9.168,2.191
0.293,0.961,0.110,-1.321,9.466,3.824
0.289,0.954,0.104,-0.779,8.229,5.122
0.290,0.953,0.111,-0.634,6.282,5.939
0.298,0.953,0.108,-0.496,3.397,6.626
0.305,0.943,0.105,-0.176,1.008,7.244
0.319,0.946,0.101,-0.191,-0.481,7.160
0.326,0.936,0.090,0.412,-0.115,6.573
0.326,0.933,0.088,0.863,1.992,5.412
0.326,0.931,0.070,1.863,3.901,4.107
0.328,0.932,0.078,2.351,5.076,3.275
0.333,0.941,0.074,2.435,5.473,2.870

-1.138,0.547,-0.194,14.313,-6.924,-250.137
-1.526,0.749,-0.258,7.870,6.321,-250.137
-1.878,0.944,-0.194,-2.962,-18.168,-250.137
-2.000,0.945,-0.222,-31.977,-61.214,-250.137
-2.000,0.990,-0.114,-64.298,-91.962,-250.137
-1.973,1.029,-0.177,-81.634,-85.107,-184.710
-2.000,0.940,-0.140,-67.305,-38.527,-92.336
-1.987,0.968,-0.060,-39.405,-5.252,-7.542
-1.967,0.845,0.105,-10.557,4.855,65.214
-1.766,0.735,0.172,7.901,4.061,109.687
-1.506,0.665,0.242,18.511,1.481,145.466
-1.343,0.601,0.268,26.359,-13.954,166.000
-1.188,0.554,0.272,36.885,-28.542,180.290
-1.057,0.523,0.253,46.779,-34.191,189.321
-0.922,0.566,0.188,52.107,-34.206,194.542
-0.836,0.593,0.135,52.916,-31.435,196.153
-0.764,0.624,0.094,49.481,-31.183,195.679
-0.707,0.654,0.032,41.977,-33.710,193.573
-0.639,0.694,-0.037,35.519,-26.908,191.260
-0.588,0.705,-0.046,31.954,-14.542,189.817
-0.544,0.717,-0.052,28.771,-9.595,188.916
-0.493,0.715,-0.064,26.527,-2.985,187.588
-0.443,0.727,-0.072,24.557,2.649,185.763
-0.411,0.722,-0.053,21.573,1.649,184.252
-0.362,0.764,-0.040,17.603,-3.359,183.344
-0.310,0.749,-0.060,13.405,-4.176,180.924
-0.245,0.787,-0.055,8.962,-2.221,179.198
-0.206,0.808,-0.065,5.847,0.840,176.527
-0.161,0.823,-0.068,4.924,6.336,172.076
-0.115,0.837,-0.063,5.893,11.954,166.206
-0.108,0.844,-0.021,7.824,12.901,160.313
-0.080,0.847,-0.032,10.489,12.237,153.985
-0.062,0.838,-0.032,12.748,12.145,146.962
-0.037,0.861,-0.028,13.565,6.214,142.710
-0.027,0.874,-0.030,12.824,-0.061,137.794
-0.017,0.876,-0.041,11.931,-6.374,131.511
0.021,0.908,-0.023,10.863,-8.893,126.260
0.024,0.912,-0.011,9.573,-6.916,121.588
0.057,0.922,-0.048,7.878,-5.695,118.763
0.054,0.917,-0.026,5.252,-8.023,115.611
0.067,0.927,-0.019,2.725,-11.618,112.397
0.108,0.944,-0.044,-0.603,-13.115,108.031
0.154,0.977,-0.081,-2.420,-9.580,105.603
0.163,0.941,-0.079,-4.481,0.450,102.298
0.177,0.927,-0.006,-4.290,13.229,97.550
0.161,0.954,-0.027,-5.954,18.779,92.504
0.176,0.995,-0.063,-8.031,22.473,90.603
0.157,0.964,-0.045,-8.687,28.695,87.115
0.147,0.952,-0.035,-11.038,31.710,82.130
0.152,0.954,-0.034,-15.008,27.527,74.611
0.158,0.947,0.014,-19.748,18.756,67.992
0.188,0.948,0.001,-22.947,11.939,61.443
0.205,0.950,0.009,-24.061,7.580,56.008
0.235,0.953,0.018,-24.641,6.649,50.214
0.225,0.943,0.031,-24.229,2.481,44.122
0.219,0.935,0.034,-22.504,-3.756,36.802
0.245,0.933,0.022,-20.031,-8.550,29.176
0.244,0.929,0.032,-18.084,-8.122,21.176
0.241,0.944,0.031,-16.565,-8.092,12.687
0.240,0.957,0.030,-16.382,-9.031,5.076
0.240,0.959,0.018,-16.916,-10.031,-0.519
0.215,0.914,0.009,-20.687,-13.145,-4.565
0.230,0.986,-0.000,-31.809,-19.237,-7.137
0.249,1.045,-0.032,-45.649,-26.115,-8.137
0.239,1.004,-0.056,-56.893,-25.466,-9.405
0.265,0.982,-0.064,-65.855,-15.924,-9.458
0.235,0.979,-0.063,-72.771,-1.237,-9.794
0.216,0.960,-0.043,-76.649,11.389,-12.687
0.201,0.945,-0.014,-79.252,21.893,-15.687
0.192,0.945,0.031,-79.771,32.145,-18.420
0.174,0.942,0.061,-77.435,41.611,-19.847
0.159,0.931,0.084,-73.863,51.015,-20.626
0.148,0.938,0.136,-68.473,58.992,-19.656
0.127,0.926,0.183,-60.107,59.908,-17.885
0.114,0.934,0.240,-51.527,52.069,-14.740
0.101,0.937,0.273,-42.626,38.885,-12.908
0.098,0.937,0.308,-32.420,27.183,-11.260
0.092,0.948,0.339,-22.679,19.076,-10.282
0.080,0.949,0.345,-9.595,11.664,-8.641
0.071,0.963,0.355,5.336,5.733,-5.931
0.066,0.974,0.351,17.252,1.290,-2.191
0.061,0.978,0.346,28.817,-3.420,3.076
0.079,0.990,0.326,37.130,-6.763,9.198
0.069,1.001,0.297,44.344,-9.046,16.000
0.062,1.013,0.271,49.656,-12.992,21.809
0.073,1.016,0.252,52.397,-18.756,25.802
0.081,1.001,0.231,53.427,-25.038,28.611
0.093,0.990,0.194,54.076,-28.893,30.817
0.114,0.989,0.172,54.153,-28.695,32.885
0.120,0.991,0.142,54.504,-23.977,33.756
0.146,0.991,0.114,55.641,-16.008,35.458
0.171,0.968,0.102,57.595,-7.672,37.420
0.187,0.959,0.083,58.939,-3.740,38.229
0.187,0.955,0.077,59.252,-3.992,37.305
0.189,0.943,0.072,58.389,-7.450,34.489
0.206,0.947,0.043,56.679,-11.977,30.847
0.219,0.958,0.045,53.420,-15.450,27.962
0.222,0.953,0.004,49.450,-18.794,24.298
0.217,0.948,-0.011,46.191,-18.847,21.160
0.242,0.953,-0.042,43.427,-16.122,18.847
0.254,0.962,-0.049,40.038,-12.229,17.130
0.254,0.965,-0.054,35.695,-8.336,15.718
0.263,0.968,-0.077,30.534,-5.275,14.527
0.262,0.968,-0.071,25.290,-2.527,13.931
0.266,0.966,-0.081,20.733,0.137,13.115
0.265,0.964,-0.081,16.733,2.809,12.664
0.256,0.968,-0.076,13.153,4.641,12.603
0.251,0.970,-0.075,10.183,6.405,12.565
0.250,0.961,-0.062,8.023,9.344,13.145
0.255,0.961,-0.068,6.160,11.855,13.954
0.263,0.969,-0.056,4.809,14.420,14.832
0.265,0.967,-0.055,3.710,16.015,15.664
0.262,0.962,-0.051,2.679,14.802,16.214
0.262,0.959,-0.035,1.443,11.481,16.733
0.276,0.957,-0.022,0.527,8.115,16.618
0.280,0.954,-0.026,-0.763,5.580,15.939
0.282,0.956,-0.026,-1.344,4.176,14.969
0.289,0.959,-0.026,-1.565,4.053,13.863
0.286,0.961,-0.022,-1.038,5.321,11.985

-1.210,0.493,-0.185,110.695,40.641,-250.137
-1.598,0.694,-0.308,104.153,12.076,-250.137
-1.823,0.922,-0.467,74.221,-12.992,-250.137
-2.000,0.995,-0.562,29.847,-24.267,-250.137
-2.000,1.045,-0.585,-13.061,-31.802,-250.137
-2.000,1.064,-0.589,-39.855,-20.893,-205.725
-2.000,1.046,-0.547,-58.046,-4.725,-100.840
-2.000,1.040,-0.464,-64.954,14.679,-9.893
-2.000,0.951,-0.313,-68.046,22.092,61.145
-1.962,0.832,-0.162,-66.550,25.031,116.107
-1.717,0.690,-0.035,-57.435,26.313,160.344
-1.471,0.608,0.105,-43.557,11.672,195.489
-1.285,0.551,0.138,-21.954,-2.840,214.664
-1.152,0.524,0.150,1.389,-3.939,220.870
-1.015,0.498,0.144,20.000,1.107,223.168
-0.898,0.560,0.114,27.382,-0.656,225.679
-0.803,0.588,0.074,27.481,-8.504,226.122
-0.743,0.610,0.022,22.473,-18.160,223.427
-0.660,0.632,-0.004,14.321,-25.870,221.664
-0.557,0.689,-0.042,5.359,-28.237,220.611
-0.465,0.696,-0.063,-3.053,-24.092,218.076
-0.395,0.716,-0.059,-9.244,-22.008,212.275
-0.354,0.715,-0.063,-11.008,-18.595,203.924
-0.300,0.740,-0.081,-9.412,-10.878,192.565
-0.270,0.755,-0.089,-7.550,-2.489,183.595
-0.223,0.771,-0.084,-6.458,3.237,177.023
-0.159,0.793,-0.060,-5.550,5.794,173.565
-0.123,0.813,-0.051,-4.664,4.794,169.802
-0.089,0.803,-0.030,-3.992,0.000,164.107
-0.047,0.827,-0.039,-2.076,-4.656,156.092
-0.020,0.838,-0.043,0.412,-5.145,147.443
-0.006,0.844,-0.028,2.321,-6.351,138.649
0.016,0.876,-0.040,3.298,-9.076,129.603
0.017,0.885,-0.047,3.458,-10.183,121.359
0.030,0.905,-0.055,3.099,-11.924,114.282
0.052,0.929,-0.045,1.962,-14.099,110.115
0.063,0.938,-0.049,0.840,-16.687,107.427
0.086,0.936,-0.061,0.534,-16.313,105.290
0.103,0.936,-0.058,0.176,-15.115,103.458
0.110,0.952,-0.066,-0.885,-15.115,100.160
0.121,0.946,-0.065,-1.466,-14.695,95.893
0.140,0.943,-0.060,-1.130,-11.901,91.794
0.154,0.927,-0.058,-0.450,-9.084,88.832
0.167,0.941,-0.066,-0.282,-7.076,84.916
0.182,0.929,-0.062,-0.389,-6.771,80.733
0.201,0.938,-0.063,-2.450,-9.275,75.725
0.212,0.943,-0.065,-5.374,-13.473,69.359
0.219,0.886,-0.171,-8.985,-16.397,63.137
0.243,0.933,-0.091,-16.534,-21.947,58.420
0.263,1.046,-0.133,-21.061,-17.748,52.473
0.224,0.948,-0.135,-21.672,-1.115,42.374
0.226,0.953,-0.105,-21.817,7.275,34.443
0.221,0.932,-0.078,-22.931,7.725,26.511
0.232,0.932,-0.062,-24.000,11.656,18.275
0.230,0.932,-0.074,-23.344,18.618,11.160
0.232,0.934,-0.057,-21.237,22.931,4.756
0.207,0.938,-0.042,-18.817,24.084,-3.237
0.182,0.936,-0.008,-16.481,21.649,-11.084
0.168,0.942,-0.005,-14.275,15.092,-18.023
0.159,0.946,0.017,-12.649,8.656,-23.893
0.151,0.973,0.010,-11.527,9.473,-28.550
0.134,0.984,-0.016,-8.786,11.840,-32.443
0.099,0.973,-0.004,-5.939,12.031,-34.275
0.085,0.998,-0.002,-3.229,9.893,-34.344
0.073,0.998,0.001,-2.206,6.641,-32.290
0.053,1.022,0.011,-3.160,3.489,-29.756
0.050,1.032,0.003,-4.641,2.893,-27.481
0.037,1.036,0.003,-6.534,2.298,-24.031
0.016,1.028,-0.004,-7.305,0.435,-20.260
0.010,1.027,-0.003,-7.046,-0.450,-15.580
0.014,1.033,-0.006,-5.672,1.557,-9.496
0.003,1.028,0.013,-4.099,4.588,-3.756
-0.009,1.033,0.015,-2.328,4.954,1.412
-0.002,1.027,0.014,0.595,5.985,6.519
-0.008,1.009,0.022,4.115,7.710,11.931
0.007,1.011,0.021,8.962,9.435,16.954
0.016,0.998,0.025,13.748,8.641,21.588
0.014,0.998,0.046,17.603,3.748,24.786
0.026,0.999,0.047,19.733,-2.038,25.939
0.050,0.999,0.028,21.443,-6.855,26.466
0.074,0.995,0.014,23.214,-9.466,26.420
0.093,0.994,-0.001,24.870,-10.695,25.611
0.097,0.989,-0.022,26.244,-12.214,23.756
0.119,0.993,-0.034,26.427,-13.229,20.870
0.128,0.990,-0.055,25.740,-13.160,17.832
0.145,0.988,-0.057,24.107,-11.992,14.099
0.147,0.982,-0.072,22.366,-10.595,11.221
0.141,0.989,-0.084,20.160,-8.618,7.947
0.145,0.981,-0.105,18.237,-5.031,4.847
0.145,0.985,-0.095,16.573,-0.160,2.466
0.137,0.987,-0.098,15.412,3.260,1.061
0.133,0.988,-0.105,13.611,4.672,0.000
0.122,0.991,-0.103,10.901,3.550,-0.740
0.124,0.992,-0.101,7.847,1.450,-0.802
0.131,1.000,-0.107,4.870,0.634,-0.489
0.123,1.003,-0.103,1.527,0.038,-0.130
0.116,0.996,-0.102,-1.336,0.924,0.389
0.125,0.990,-0.104,-3.748,2.863,0.565
0.117,0.998,-0.105,-5.695,5.649,0.954
0.113,1.000,-0.099,-7.519,7.267,1.359
0.109,0.993,-0.082,-9.298,6.786,2.084
0.098,0.992,-0.085,-10.221,5.664,2.954
0.101,0.998,-0.081,-10.695,4.908,3.435
0.110,1.000,-0.078,-11.168,5.954,4.252
0.111,0.999,-0.069,-11.672,7.237,4.947
0.106,1.006,-0.056,-11.527,7.855,5.718
0.108,0.997,-0.056,-10.557,8.260,6.008
0.115,0.993,-0.051,-9.603,8.115,5.809
0.119,0.991,-0.044,-8.351,7.947,4.878
0.121,0.991,-0.041,-7.084,8.130,4.000
0.131,0.992,-0.034,-5.893,8.740,2.977
0.123,0.997,-0.041,-5.229,8.756,1.687
0.117,1.003,-0.028,-4.534,7.863,0.779
0.120,0.996,-0.024,-3.794,6.863,0.015
0.126,1.002,-0.034,-3.496,7.107,-0.557
0.115,1.004,-0.037,-2.855,8.511,-1.237
0.117,0.999,-0.037,-2.397,8.206,-1.504
0.104,1.004,-0.029,-2.046,7.099,-1.237
0.111,1.002,-0.033,-1.580,6.405,-0.450

-1.123,0.617,-0.152,45.160,62.145,-250.137
-1.510,0.815,-0.214,41.107,61.405,-250.137
-1.785,1.003,-0.250,33.878,49.878,-250.137
-1.986,1.017,-0.266,17.305,21.893,-250.137
-2.000,1.090,-0.293,-2.672,-8.122,-210.489
-2.000,1.125,-0.340,-23.550,-23.664,-136.168
-2.000,1.125,-0.341,-40.771,-22.939,-57.802
-2.000,1.087,-0.309,-48.618,-10.527,19.374
-1.987,0.985,-0.188,-49.397,-5.137,91.489
-1.819,0.882,-0.077,-47.924,-3.656,138.595
-1.596,0.801,0.030,-47.550,-5.450,174.290
-1.406,0.731,0.129,-46.985,-18.206,200.084
-1.213,0.664,0.175,-40.641,-31.901,214.061
-1.037,0.627,0.182,-26.382,-32.985,220.679
-0.898,0.605,0.207,-9.603,-27.061,221.580
-0.765,0.598,0.191,3.305,-26.527,221.405
-0.643,0.610,0.169,9.336,-32.221,220.328
-0.548,0.632,0.126,10.031,-43.031,216.702
-0.488,0.627,0.084,8.420,-54.748,210.328
-0.408,0.641,0.008,5.840,-66.954,200.183
-0.351,0.644,-0.051,4.740,-71.794,190.076
-0.286,0.691,-0.085,5.336,-66.168,179.634
-0.239,0.709,-0.119,7.313,-54.275,168.824
-0.204,0.727,-0.134,8.847,-42.733,157.656
-0.147,0.763,-0.163,9.802,-29.099,145.687
-0.106,0.788,-0.175,9.130,-11.305,133.092
-0.088,0.803,-0.156,5.855,-0.137,122.649
-0.058,0.811,-0.138,-0.275,1.763,112.389
-0.030,0.843,-0.126,-6.519,0.374,103.855
-0.008,0.869,-0.115,-13.053,-1.015,95.626
-0.002,0.879,-0.101,-19.031,-2.153,87.328
0.008,0.890,-0.090,-23.450,-1.863,79.519
-0.007,0.900,-0.064,-26.641,0.244,71.931
-0.009,0.933,-0.033,-27.634,3.924,66.038
-0.024,0.942,-0.005,-27.840,7.000,62.885
-0.033,0.973,0.001,-27.122,9.374,60.893
-0.033,0.968,0.023,-25.420,11.458,60.565
-0.035,0.980,0.054,-24.092,9.840,61.046
-0.030,0.978,0.067,-22.733,4.038,62.000
-0.018,0.979,0.075,-21.679,-1.435,62.466
-0.011,0.978,0.088,-20.641,-7.427,62.420
0.000,0.976,0.098,-19.496,-14.153,62.260
0.013,0.966,0.099,-17.992,-22.771,61.084
0.027,0.952,0.098,-15.771,-27.756,58.954
0.039,0.958,0.094,-13.695,-33.573,55.450
0.038,0.953,0.080,-11.626,-36.634,51.985
0.049,0.957,0.071,-10.275,-36.733,48.084
0.060,0.962,0.063,-8.687,-33.466,44.221
0.049,0.963,0.052,-6.939,-27.168,40.489
0.032,0.967,0.013,-5.008,-19.840,35.802
0.042,0.996,0.023,-2.756,-11.947,33.481
0.037,0.962,0.035,-1.603,-4.771,32.817
0.032,0.972,0.044,-0.740,-1.153,30.595
0.035,0.978,0.047,-1.382,-0.206,26.748
0.041,0.972,0.049,-2.710,-0.481,23.557
0.045,0.982,0.050,-3.725,-1.168,20.847
0.051,0.979,0.062,-4.779,-2.412,18.344
0.047,0.970,0.048,-5.649,-4.550,16.053
0.048,0.972,0.051,-6.458,-5.969,13.267
0.043,0.978,0.051,-7.122,-5.099,9.603
0.048,0.980,0.044,-7.015,-1.458,6.809
0.049,0.986,0.042,-6.427,2.183,4.870
0.042,0.992,0.038,-5.771,6.962,3.534
0.037,0.985,0.042,-4.908,11.824,2.626
0.031,0.991,0.051,-3.908,14.260,1.450
0.029,0.987,0.052,-3.015,15.000,1.282
0.020,0.993,0.074,-2.397,13.939,1.191
0.015,0.997,0.070,-2.664,11.321,2.130
0.006,0.998,0.067,-3.290,8.855,3.344
0.012,1.000,0.076,-3.290,6.473,5.298
0.030,0.999,0.077,-3.015,5.405,7.863
0.037,0.992,0.078,-3.053,3.412,9.595
0.048,0.996,0.080,-3.962,0.496,10.053
0.045,0.990,0.080,-5.176,-2.588,9.206
0.050,0.983,0.075,-5.656,-5.641,7.763
0.066,0.971,0.062,-4.840,-7.198,6.748
0.074,0.971,0.056,-3.313,-6.924,5.954
0.074,0.970,0.061,-1.939,-4.710,4.710
0.075,0.980,0.063,-1.511,-1.458,2.794
0.078,0.981,0.056,-1.473,2.031,0.290
0.071,0.984,0.059,-1.313,5.481,-2.542
0.057,0.983,0.052,-0.931,7.740,-4.313
0.046,0.986,0.057,-0.397,7.840,-4.901
0.042,0.990,0.056,-0.893,7.885,-4.740
0.031,0.999,0.061,-1.061,8.130,-4.710
0.019,0.994,0.065,-1.626,7.603,-3.840
0.019,0.996,0.068,-1.969,6.603,-2.595
0.016,0.997,0.075,-2.359,6.595,-1.137
0.013,1.003,0.063,-2.870,6.718,0.168
0.018,0.996,0.075,-3.122,5.168,1.282
0.020,0.993,0.076,-2.893,2.229,2.603
0.024,0.986,0.073,-2.489,1.901,3.015
0.036,0.997,0.079,-2.145,1.870,2.527
0.032,0.991,0.072,-1.511,3.061,1.779
0.037,0.992,0.064,-0.595,5.733,1.046
0.032,0.988,0.063,-0.405,7.893,0.954
0.032,0.988,0.074,-0.153,8.863,0.237
0.023,1.002,0.075,-0.176,8.260,-0.405
0.026,1.000,0.072,0.298,9.008,-0.473
0.020,0.992,0.080,0.634,9.870,0.229
0.007,0.999,0.072,0.977,10.206,1.443
0.016,1.002,0.081,1.466,10.076,2.809
0.009,1.001,0.078,0.855,7.916,4.260
0.021,1.000,0.078,0.191,6.641,5.198
0.027,1.003,0.078,-0.099,4.634,6.244
0.030,0.991,0.081,-0.366,3.710,6.664
0.034,0.991,0.075,0.107,3.557,6.954
0.048,0.991,0.072,0.870,4.282,6.252
0.050,0.989,0.068,1.221,4.832,5.344
0.051,0.985,0.072,1.252,4.840,4.840
0.046,0.989,0.067,1.107,4.664,3.809
0.043,0.987,0.062,0.908,3.931,3.305
0.044,0.992,0.069,0.573,3.550,2.901
0.051,0.987,0.060,0.481,3.786,3.053
0.049,0.991,0.053,0.435,5.031,3.046
0.046,0.993,0.056,0.321,6.099,3.008
0.037,0.989,0.056,-0.053,5.313,3.076
0.042,0.992,0.054,-0.389,4.985,3.290
0.045,0.994,0.053,-0.557,4.908,3.641

-1.402,0.432,0.055,59.977,37.511,-250.137
-1.761,0.642,-0.012,69.580,26.725,-250.137
-2.000,0.803,-0.029,65.099,-4.389,-250.137
-2.000,0.934,-0.132,48.076,-30.794,-250.137
-2.000,0.970,-0.165,20.679,-58.656,-250.137
-2.000,0.967,-0.167,-1.244,-70.939,-204.267
-2.000,0.937,-0.222,-15.176,-58.809,-102.603
-2.000,0.968,-0.201,-16.244,-27.817,-8.725
-2.000,0.836,-0.069,-14.275,-16.366,75.275
-2.000,0.698,0.032,-9.985,-14.847,139.351
-1.789,0.602,0.108,-5.794,-11.092,180.420
-1.466,0.514,0.212,-2.725,-21.924,218.809
-1.243,0.435,0.243,5.328,-31.908,233.962
-1.059,0.395,0.243,18.740,-30.740,234.244
-0.915,0.396,0.225,31.756,-23.687,228.489
-0.807,0.424,0.198,42.046,-15.863,221.366
-0.728,0.466,0.170,46.679,-13.107,213.748
-0.663,0.513,0.103,45.985,-13.794,205.847
-0.592,0.503,0.030,42.122,-15.176,198.870
-0.516,0.532,-0.030,39.244,-9.427,192.794
-0.475,0.575,-0.042,35.351,-7.779,185.771
-0.430,0.622,-0.060,30.794,-4.756,176.634
-0.389,0.670,-0.075,26.252,4.565,165.435
-0.359,0.686,-0.085,22.366,12.244,155.122
-0.341,0.713,-0.096,18.489,18.336,144.901
-0.317,0.737,-0.094,15.053,23.160,134.931
-0.290,0.767,-0.096,12.260,28.458,126.145
-0.281,0.793,-0.090,9.130,32.366,119.015
-0.279,0.816,-0.080,4.771,31.924,111.763
-0.275,0.833,-0.077,1.534,31.557,105.786
-0.269,0.855,-0.070,-1.847,31.405,100.458
-0.272,0.871,-0.058,-3.962,28.298,97.939
-0.268,0.894,-0.052,-5.336,24.687,97.985
-0.287,0.908,-0.048,-6.237,22.832,98.756
-0.281,0.912,-0.023,-6.809,21.580,100.580
-0.266,0.935,-0.003,-7.176,20.389,103.466
-0.253,0.946,0.003,-6.977,18.466,106.397
-0.253,0.949,0.017,-6.809,14.885,109.420
-0.233,0.942,0.031,-6.992,9.466,112.573
-0.214,0.951,0.053,-6.855,0.450,115.740
-0.191,0.940,0.057,-5.366,-7.405,117.542
-0.163,0.939,0.043,-2.687,-16.603,118.267
-0.136,0.923,0.049,0.672,-22.855,118.000
-0.116,0.917,0.041,4.718,-25.985,116.710
-0.078,0.932,0.037,8.198,-27.351,114.481
-0.027,0.932,0.024,11.229,-24.427,111.321
-0.003,0.928,0.004,14.855,-18.046,106.664
0.022,0.937,0.002,18.053,-10.748,99.977
0.031,0.935,-0.012,20.275,-6.527,91.687
0.059,0.936,-0.022,21.840,-3.328,84.122
0.048,0.931,-0.055,23.015,-2.580,75.023
0.060,0.951,-0.038,22.924,-3.176,68.939
0.071,0.948,-0.053,23.588,-0.748,62.359
0.064,0.926,-0.050,23.885,-0.779,55.840
0.066,0.951,-0.070,23.382,-3.084,50.092
0.080,0.952,-0.088,23.099,-3.878,45.763
0.091,0.961,-0.100,22.718,-3.977,43.679
0.094,0.963,-0.108,21.985,-3.275,42.947
0.094,0.973,-0.107,19.878,-3.298,42.191
0.093,0.982,-0.111,17.282,-3.779,39.618
0.077,0.986,-0.119,15.061,-1.786,36.863
0.068,0.982,-0.105,12.763,0.481,35.534
0.067,0.989,-0.101,10.641,-1.351,36.031
0.078,1.003,-0.096,9.176,-3.389,37.901
0.081,1.003,-0.101,7.763,-1.252,41.275
0.080,1.008,-0.114,7.038,1.328,44.718
0.093,0.996,-0.106,5.328,1.718,49.031
0.090,1.004,-0.101,2.756,0.328,53.550
0.106,1.008,-0.115,0.450,-0.733,57.450
0.124,0.982,-0.127,-1.191,2.145,60.595
0.134,0.993,-0.119,-2.321,5.954,62.183
0.166,0.998,-0.125,-4.298,8.076,64.115
0.160,0.969,-0.113,-6.527,11.015,64.924
0.161,0.978,-0.097,-8.595,10.313,63.916
0.182,0.982,-0.113,-10.176,9.847,61.733
0.188,0.971,-0.073,-11.672,10.733,59.008
0.205,0.944,-0.083,-13.008,10.366,55.420
0.214,0.956,-0.075,-14.275,5.351,50.076
0.245,0.956,-0.073,-15.496,3.260,43.542
0.260,0.958,-0.066,-16.473,2.947,36.626
0.252,0.952,-0.051,-17.611,2.618,28.542
0.278,0.953,-0.054,-17.847,0.847,18.534
0.296,0.951,-0.045,-17.473,-0.015,9.420
0.302,0.952,-0.032,-15.924,1.305,-0.779
0.314,0.955,-0.030,-14.519,4.176,-8.382
0.307,0.948,-0.029,-11.611,7.489,-16.450
0.302,0.940,-0.027,-8.351,10.718,-23.916
0.295,0.952,-0.012,-5.107,13.344,-30.321
0.267,0.956,-0.009,-1.962,13.802,-35.931
0.259,0.961,0.003,0.092,12.771,-39.626
0.234,0.976,-0.003,1.649,10.290,-41.618
0.212,0.987,-0.001,3.229,7.710,-42.221
0.182,0.987,-0.013,5.718,5.634,-41.397
0.160,0.999,-0.010,8.092,6.168,-39.351
0.131,1.009,-0.023,10.443,6.802,-35.473
0.115,1.012,-0.034,12.099,6.282,-29.565
0.103,1.020,-0.027,13.076,5.031,-23.260
0.102,1.023,-0.045,13.855,3.939,-16.924
0.096,1.023,-0.042,14.130,3.344,-10.634
0.088,1.017,-0.062,13.733,1.725,-5.550
0.097,1.020,-0.057,12.649,0.328,-1.412
0.101,1.018,-0.062,11.695,-1.076,1.817
0.105,1.008,-0.082,10.954,-2.061,4.206
0.113,1.008,-0.095,10.305,-1.397,5.664
0.121,0.996,-0.091,10.359,-0.229,6.244
0.130,0.992,-0.103,9.802,0.618,6.496
0.142,0.990,-0.105,8.718,0.733,5.718
0.147,0.991,-0.110,7.611,1.153,4.588
0.146,0.985,-0.111,6.198,2.313,3.321
0.142,0.986,-0.114,4.656,1.954,1.588
0.148,0.984,-0.111,3.122,2.565,0.420
0.146,0.989,-0.113,1.504,4.824,-0.870
0.151,0.998,-0.108,-0.786,6.740,-1.687
0.147,0.998,-0.107,-2.588,8.542,-1.939
0.155,0.994,-0.111,-3.908,9.664,-2.069
0.139,0.993,-0.091,-4.534,11.237,-2.038
0.145,0.993,-0.091,-4.824,11.740,-1.405
0.138,0.994,-0.075,-5.038,11.405,-0.160
0.142,0.997,-0.070,-5.389,10.748,0.954

-1.211,0.689,-0.023,84.916,-10.481,-250.137
-1.551,0.855,-0.157,89.740,-16.550,-250.137
-1.829,0.911,-0.257,89.191,-25.931,-250.137
-1.993,1.057,-0.335,81.817,-37.435,-250.137
-2.000,1.052,-0.432,61.679,-46.740,-187.641
-2.000,1.118,-0.553,42.626,-33.130,-97.427
-2.000,1.034,-0.560,26.191,-5.008,-3.847
-2.000,0.959,-0.457,9.015,1.122,72.366
-1.887,0.837,-0.340,-13.023,-11.916,132.221
-1.642,0.732,-0.228,-29.954,-27.420,171.763
-1.436,0.642,-0.145,-35.260,-39.985,195.603
-1.254,0.594,-0.102,-30.748,-41.534,207.679
-1.099,0.569,-0.070,-20.359,-33.519,211.191
-0.961,0.563,-0.062,-8.786,-20.771,210.168
-0.846,0.573,-0.073,1.046,-7.947,207.618
-0.719,0.594,-0.067,5.160,-1.878,205.802
-0.614,0.615,-0.067,3.427,-5.588,204.794
-0.510,0.631,-0.094,-1.710,-17.267,202.046
-0.421,0.659,-0.102,-8.015,-30.046,195.962
-0.347,0.683,-0.139,-12.206,-33.260,188.687
-0.265,0.713,-0.163,-15.679,-25.656,179.305
-0.210,0.740,-0.162,-17.519,-16.069,172.221
-0.164,0.761,-0.159,-18.069,-5.908,164.527
-0.144,0.778,-0.144,-18.076,2.160,154.939
-0.127,0.808,-0.137,-19.191,3.824,145.053
-0.090,0.835,-0.117,-20.565,5.672,135.832
-0.058,0.864,-0.098,-21.740,10.427,126.565
-0.051,0.876,-0.058,-23.298,9.008,117.840
-0.058,0.889,-0.044,-23.969,4.756,108.733
-0.041,0.900,-0.024,-22.595,0.947,100.282
-0.031,0.923,-0.013,-19.840,-0.260,94.870
-0.042,0.923,-0.003,-16.863,-1.947,90.450
-0.043,0.955,0.025,-13.000,-5.458,86.489
-0.041,0.953,0.003,-9.725,-8.664,83.962
-0.039,0.964,0.003,-6.687,-11.885,82.618
-0.034,0.977,0.002,-3.924,-15.344,82.802
-0.005,0.992,0.004,-2.443,-14.412,85.069
0.011,0.997,-0.007,-1.863,-13.550,87.809
0.027,0.982,-0.005,-1.313,-12.824,89.908
0.046,0.979,-0.010,-0.542,-13.305,90.817
0.054,0.961,-0.014,0.580,-13.076,90.382
0.065,0.957,-0.006,1.473,-14.855,88.008
0.104,0.963,-0.022,2.580,-15.656,85.137
0.099,0.996,0.091,3.443,-14.649,80.130
0.156,0.930,-0.022,3.588,-14.206,74.023
0.163,0.951,-0.048,3.122,-13.122,68.298
0.172,0.937,-0.040,3.023,-12.969,61.290
0.192,0.938,-0.042,2.069,-16.527,53.298
0.210,0.940,-0.044,1.504,-18.748,44.420
0.222,0.941,-0.062,0.802,-16.427,35.412
0.207,0.950,-0.066,0.733,-10.954,26.092
0.202,0.957,-0.062,0.305,-5.466,18.115
0.183,0.963,-0.072,0.046,-0.481,10.901
0.180,0.970,-0.058,-0.015,4.603,4.840
0.156,0.975,-0.046,-0.237,7.885,0.481
0.144,0.999,-0.044,-0.702,8.160,-3.489
0.134,1.010,-0.041,-1.824,7.664,-5.489
0.108,1.012,-0.040,-2.427,7.420,-6.420
0.090,1.008,-0.047,-1.672,6.321,-5.847
0.073,1.007,-0.049,-0.069,7.489,-3.634
0.063,1.004,-0.039,2.603,10.099,-1.298
0.056,1.013,-0.036,4.893,12.519,2.229
0.060,1.014,-0.018,6.740,11.786,6.901
0.060,1.011,-0.013,9.031,9.458,11.267
0.068,1.010,-0.011,11.107,6.534,15.924
0.081,1.008,-0.019,13.328,3.275,19.496
0.099,0.995,-0.022,14.496,-0.122,22.282
0.109,0.994,-0.038,15.427,-3.183,22.496
0.118,0.994,-0.034,15.794,-4.954,21.802
0.127,0.989,-0.053,16.092,-6.221,20.176
0.141,0.993,-0.063,15.443,-5.893,18.603
0.146,0.993,-0.073,14.863,-4.061,16.580
0.153,0.985,-0.083,13.885,-3.092,14.740
0.154,0.988,-0.087,12.542,-2.679,13.779
0.161,0.982,-0.102,10.489,-2.664,12.580
0.170,0.995,-0.111,7.962,-1.359,11.252
0.170,0.978,-0.113,5.817,-0.634,9.511
0.174,0.976,-0.117,3.252,-0.542,7.725
0.174,0.971,-0.119,1.214,0.038,5.580
0.168,0.970,-0.118,0.069,1.626,3.527
0.160,0.976,-0.131,-0.740,4.939,1.756
0.158,0.979,-0.128,-1.840,8.824,0.588
0.153,0.992,-0.109,-3.191,11.511,0.611
0.144,0.986,-0.103,-4.443,12.763,1.534
0.136,0.986,-0.100,-5.145,12.855,2.321
0.129,0.995,-0.093,-5.557,13.099,3.939
0.139,1.000,-0.085,-5.931,12.626,5.985
0.133,0.995,-0.079,-6.427,11.168,7.977
0.134,0.985,-0.072,-6.794,7.321,9.412
0.148,0.979,-0.067,-6.649,3.038,9.740
0.158,0.987,-0.055,-6.260,1.351,9.779
0.160,0.989,-0.062,-5.985,0.779,9.267
0.166,0.986,-0.062,-5.817,-0.412,8.565
0.170,0.979,-0.065,-5.634,-1.122,7.634
0.164,0.983,-0.072,-5.015,-0.443,6.160
0.172,0.993,-0.069,-5.046,1.298,4.466
0.172,0.996,-0.074,-5.145,3.000,2.580
0.154,0.996,-0.071,-4.924,5.290,0.672
0.158,0.991,-0.067,-4.550,8.664,-0.565
0.149,1.000,-0.055,-4.519,10.664,-0.947
0.146,1.005,-0.052,-4.779,11.344,-0.504
0.143,1.007,-0.045,-5.641,9.580,-0.153
0.140,1.006,-0.049,-6.115,6.809,0.573
0.148,0.993,-0.053,-6.076,4.916,1.221
0.153,0.993,-0.047,-5.237,4.855,1.855
0.154,0.989,-0.050,-3.885,5.076,2.023
0.152,0.995,-0.051,-3.160,4.282,2.115
0.160,0.990,-0.046,-3.046,2.542,1.702
0.154,0.989,-0.048,-2.992,1.824,1.137
0.152,0.987,-0.054,-2.977,2.145,0.374
0.161,0.993,-0.056,-2.618,4.237,-0.473
0.152,0.999,-0.059,-2.527,6.573,-1.015
0.159,1.003,-0.062,-2.695,8.229,-0.863
0.140,1.010,-0.063,-3.649,10.351,-0.359
0.138,1.011,-0.062,-4.672,11.580,0.031
0.137,1.003,-0.066,-5.046,12.237,0.466
0.140,0.993,-0.053,-5.290,12.000,1.076
0.144,0.997,-0.049,-5.351,10.573,2.588
0.146,0.993,-0.046,-5.282,8.710,3.901

1.089,0.521,0.175,29.481,8.985,-128.092
1.214,0.384,0.285,21.450,-47.664,-191.328
1.313,0.192,0.276,10.359,-78.870,-250.137
1.238,0.018,0.275,5.061,-74.924,-250.137
1.015,-0.203,0.186,24.122,-26.076,-250.137
0.610,-0.315,0.108,73.878,53.275,-250.137
0.060,-0.313,0.091,135.473,99.870,-250.137
-0.560,-0.115,0.056,181.260,85.107,-250.137
-1.056,0.190,-0.151,189.183,44.427,-250.137
-1.507,0.503,-0.423,169.916,7.573,-250.137
-1.906,0.747,-0.653,131.168,-38.466,-250.137
-2.000,0.939,-0.771,80.267,-64.527,-250.137
-2.000,1.091,-0.877,29.786,-55.053,-250.137
-2.000,1.172,-0.916,-6.832,-38.336,-206.084
-2.000,1.213,-0.894,-30.954,-6.466,-91.191
-2.000,1.098,-0.719,-49.573,5.901,7.153
-2.000,0.984,-0.532,-63.840,11.893,75.000
-1.912,0.855,-0.329,-72.183,19.000,131.924
-1.612,0.705,-0.148,-70.626,11.496,179.168
-1.365,0.618,-0.003,-60.519,-0.626,207.802
-1.161,0.528,0.084,-41.023,-11.198,222.282
-0.983,0.479,0.133,-14.458,-15.573,223.992
-0.808,0.496,0.128,9.855,-13.618,219.176
-0.687,0.526,0.094,25.214,-15.115,210.824
-0.608,0.578,0.041,30.817,-20.779,201.237
-0.558,0.607,-0.034,29.893,-27.046,190.969
-0.521,0.644,-0.098,25.046,-34.985,182.130
-0.449,0.680,-0.167,19.832,-39.420,176.458
-0.395,0.709,-0.211,15.748,-34.145,171.565
-0.351,0.760,-0.227,11.863,-22.924,165.221
-0.320,0.792,-0.239,7.740,-10.023,156.954
-0.298,0.810,-0.259,3.069,3.733,147.985
-0.294,0.817,-0.261,-1.550,12.954,138.725
-0.277,0.827,-0.247,-6.267,18.443,129.603
-0.265,0.831,-0.221,-12.580,18.244,123.870
-0.245,0.865,-0.216,-19.664,13.626,121.076
-0.231,0.865,-0.222,-25.695,11.504,119.336
-0.228,0.898,-0.194,-31.580,7.618,118.740
-0.223,0.896,-0.182,-37.069,1.817,118.611
-0.213,0.898,-0.172,-42.198,-9.656,120.885
-0.179,0.925,-0.193,-45.763,-14.382,124.153
-0.157,0.942,-0.167,-46.084,-13.229,128.076
-0.127,0.936,-0.157,-43.550,-9.092,132.519
-0.098,0.914,-0.121,-39.550,-2.038,135.885
-0.067,0.918,-0.092,-35.046,6.405,137.267
-0.022,0.922,-0.082,-30.466,14.328,138.130
0.004,0.913,-0.067,-25.023,18.977,137.290
0.028,0.922,-0.052,-20.878,21.260,134.939
0.055,0.922,-0.036,-17.611,21.733,131.107
0.077,0.929,-0.022,-14.443,20.458,125.084
0.107,0.941,-0.020,-12.290,18.237,118.985
0.128,0.945,-0.019,-10.244,15.771,112.710
0.168,0.940,-0.036,-8.695,14.618,107.221
0.181,0.939,-0.017,-6.908,12.466,99.618
0.196,0.936,-0.021,-5.351,13.939,91.260
0.234,0.942,-0.035,-2.649,16.366,80.427
0.257,0.941,-0.042,0.115,16.573,67.641
0.355,0.996,-0.125,3.275,18.076,53.275
0.275,0.901,-0.018,5.954,20.153,38.298
0.247,0.919,-0.032,9.733,20.137,24.496
0.267,0.942,-0.036,13.061,19.893,11.450
0.260,0.930,-0.023,15.069,16.534,-1.511
0.243,0.918,-0.023,16.221,7.336,-16.206
0.230,0.934,-0.033,17.534,-0.405,-27.679
0.228,0.948,-0.041,19.565,-4.221,-36.221
0.187,0.936,-0.028,21.863,-8.855,-43.374
0.142,0.941,-0.051,20.076,-23.282,-48.206
0.120,0.968,-0.079,14.840,-36.229,-51.168
0.140,1.062,-0.170,8.221,-29.893,-52.908
0.135,1.061,-0.204,3.870,-4.924,-52.443
0.089,1.043,-0.203,1.115,18.947,-50.504
0.042,1.023,-0.168,-1.435,26.321,-45.924
0.012,1.028,-0.146,-4.519,25.443,-39.962
-0.014,1.023,-0.138,-6.580,24.527,-33.885
-0.030,1.017,-0.116,-7.397,24.626,-26.763
-0.032,1.023,-0.119,-6.412,23.916,-18.321
-0.045,1.006,-0.109,-4.679,22.344,-10.435
-0.045,1.012,-0.090,-3.107,20.168,-2.580
-0.044,1.015,-0.078,-1.489,15.176,6.649
-0.048,1.013,-0.081,-0.107,10.573,12.511
-0.031,1.019,-0.083,1.824,6.733,16.702
-0.027,1.010,-0.087,4.191,4.947,19.458
-0.011,0.999,-0.075,6.450,3.168,21.069
0.007,1.018,-0.080,8.000,1.771,22.130
0.028,1.016,-0.080,8.809,0.763,21.634
0.040,1.011,-0.093,9.122,1.656,19.672
0.054,1.022,-0.096,8.870,3.420,17.534
0.070,1.013,-0.102,8.092,6.725,15.115
0.082,0.996,-0.112,6.809,8.855,13.221
0.087,1.001,-0.119,4.557,9.321,10.969
0.095,0.995,-0.124,2.420,9.031,8.252
0.100,0.994,-0.129,0.870,10.069,5.672
0.104,0.984,-0.127,-0.183,10.954,3.328
0.088,0.978,-0.133,-0.794,10.786,0.290
0.085,0.993,-0.129,-1.160,11.649,-1.855
0.086,0.994,-0.125,-1.046,14.244,-2.275
0.076,0.997,-0.117,-1.542,14.588,-2.328
0.062,0.998,-0.104,-2.718,11.710,-0.992
0.067,1.005,-0.113,-4.168,10.008,0.481
0.060,1.009,-0.128,-4.573,10.137,2.137
0.056,0.999,-0.129,-4.710,10.107,3.847
0.071,1.004,-0.117,-5.489,10.115,5.290
0.069,1.011,-0.119,-5.977,12.153,6.901
0.065,1.005,-0.117,-6.000,13.008,8.137
0.055,0.990,-0.105,-5.382,11.634,8.443
0.041,0.972,-0.096,-4.214,5.420,8.466
0.053,0.992,-0.087,-3.588,0.580,8.885
0.068,1.002,-0.091,-1.794,0.885,10.443
0.071,0.980,-0.093,1.275,0.458,11.809
0.054,0.978,-0.080,3.901,-3.893,12.397
0.077,0.992,-0.083,5.328,-7.427,12.893
0.101,1.002,-0.084,6.756,-6.153,13.481
0.098,1.009,-0.096,6.802,-3.748,13.534
0.103,1.017,-0.099,5.863,-2.885,12.023
0.119,1.021,-0.113,3.550,-2.374,9.710
0.117,1.011,-0.122,0.420,-1.679,6.206
0.104,1.004,-0.126,-2.733,-2.595,1.145
0.103,0.993,-0.129,-5.061,-5.542,-1.908
0.120,1.009,-0.125,-7.244,-2.313,-4.015

-1.199,0.656,-0.076,132.351,25.435,-250.137
-1.487,0.844,-0.214,133.122,27.084,-250.137
-1.690,1.054,-0.310,119.595,9.244,-250.137
-1.802,1.110,-0.465,93.084,-2.679,-250.137
-1.868,1.257,-0.570,59.160,-9.725,-235.153
-1.956,1.282,-0.614,24.290,-12.695,-145.542
-1.960,1.299,-0.634,-2.985,-1.740,-53.893
-1.971,1.234,-0.529,-24.092,8.718,26.534
-1.853,1.132,-0.392,-41.580,9.183,85.115
-1.656,0.995,-0.261,-52.115,9.282,129.366
-1.439,0.864,-0.127,-54.595,3.580,166.573
-1.234,0.772,-0.017,-51.969,-12.641,193.641
-1.036,0.724,0.023,-44.832,-27.901,208.618
-0.891,0.688,0.044,-32.290,-33.168,211.023
-0.750,0.647,0.049,-15.450,-28.008,207.802
-0.620,0.658,0.038,0.870,-18.840,202.947
-0.511,0.666,0.034,13.603,-12.718,195.832
-0.439,0.672,0.001,21.008,-11.023,187.008
-0.384,0.689,-0.012,24.458,-14.038,177.122
-0.315,0.697,-0.040,24.153,-21.954,166.130
-0.248,0.745,-0.104,20.893,-26.603,155.260
-0.210,0.753,-0.139,16.267,-28.344,143.847
-0.192,0.786,-0.171,10.939,-29.305,132.687
-0.152,0.819,-0.209,5.076,-27.313,122.023
-0.131,0.834,-0.235,-0.733,-21.550,112.618
-0.116,0.850,-0.243,-6.023,-12.000,103.725
-0.094,0.868,-0.255,-9.565,0.046,95.504
-0.088,0.879,-0.238,-11.969,10.252,89.229
-0.087,0.887,-0.213,-14.794,17.412,82.435
-0.083,0.905,-0.193,-17.168,23.710,76.290
-0.078,0.912,-0.165,-18.504,28.802,71.046
-0.088,0.913,-0.130,-20.008,27.824,67.099
-0.084,0.928,-0.100,-21.000,23.084,64.740
-0.086,0.933,-0.075,-21.389,17.145,63.664
-0.081,0.958,-0.060,-21.786,8.618,63.618
-0.058,0.963,-0.041,-22.107,0.412,64.580
-0.049,0.970,-0.036,-21.802,-4.985,64.733
-0.047,0.981,-0.028,-20.931,-8.481,64.832
-0.034,0.992,-0.022,-19.939,-10.344,64.695
-0.026,0.992,-0.029,-18.534,-11.275,64.519
-0.027,0.993,-0.028,-16.450,-11.916,63.786
-0.019,0.997,-0.022,-14.427,-12.405,63.420
-0.017,0.999,-0.029,-12.366,-12.748,62.618
-0.013,0.997,-0.017,-10.206,-12.061,61.504
-0.000,0.997,-0.025,-7.756,-10.573,61.260
0.010,0.989,-0.007,-5.099,-10.359,60.893
0.017,0.985,-0.012,-2.168,-10.275,60.107
0.021,0.977,-0.017,0.420,-10.580,57.718
0.043,0.970,-0.029,2.603,-12.000,54.817
0.051,0.979,-0.032,4.496,-12.359,51.298
0.064,0.972,-0.046,5.748,-12.321,47.160
0.068,0.974,-0.058,6.321,-12.344,42.878
0.066,0.969,-0.067,7.771,-10.878,37.992
0.072,0.977,-0.066,7.947,-9.244,33.420
0.063,0.995,-0.087,7.847,-8.008,29.038
0.076,0.991,-0.094,7.061,-6.611,25.687
0.079,0.966,-0.109,6.878,-2.603,23.359
0.075,0.981,-0.105,6.038,-1.672,19.695
0.083,0.978,-0.114,4.466,-1.061,15.885
0.089,0.987,-0.115,3.000,3.069,12.878
0.079,0.986,-0.115,1.557,5.573,11.588
0.073,0.982,-0.119,-0.160,6.115,10.580
0.070,0.974,-0.114,-1.023,6.023,9.992
0.076,0.994,-0.108,-1.496,7.046,10.023
0.077,0.988,-0.098,-2.214,7.802,10.267
0.082,0.992,-0.100,-3.336,7.969,10.389
0.084,0.997,-0.094,-5.198,7.504,10.198
0.096,0.996,-0.085,-6.893,5.756,9.542
0.101,1.002,-0.090,-7.763,4.878,9.099
0.095,0.991,-0.088,-8.092,5.771,7.786
0.089,0.997,-0.070,-8.313,6.649,7.061
0.092,1.001,-0.073,-8.649,8.298,6.771
0.082,1.003,-0.069,-8.450,10.672,6.931
0.091,0.990,-0.052,-8.107,10.450,7.206
0.098,1.002,-0.036,-7.206,8.855,7.954
0.095,0.996,-0.023,-6.779,4.802,7.985
0.103,0.998,-0.031,-6.397,1.863,7.137
0.101,0.991,-0.029,-4.962,0.565,5.641
0.105,0.999,-0.035,-3.450,-2.076,4.786
0.102,0.992,-0.032,-1.847,-3.145,4.366
0.101,0.997,-0.032,-0.252,-1.725,3.313
0.096,0.989,-0.050,0.962,0.214,2.115
0.095,0.992,-0.042,2.229,2.779,1.015
0.091,1.005,-0.059,3.038,4.489,0.076
0.087,1.004,-0.065,3.229,5.779,-0.511
0.073,1.006,-0.060,2.779,4.977,-0.710
0.084,1.001,-0.064,1.824,3.160,0.092
0.079,0.996,-0.078,1.176,2.191,0.344
0.088,0.999,-0.078,0.573,2.313,0.519
0.089,0.994,-0.070,-0.718,2.397,0.046
0.087,0.995,-0.072,-1.885,2.992,-1.053
0.090,0.990,-0.087,-2.397,4.748,-1.824
0.083,0.995,-0.081,-2.802,6.733,-2.977
0.074,0.998,-0.069,-3.282,7.267,-3.901
0.071,0.996,-0.075,-3.122,8.450,-4.405
0.063,1.001,-0.072,-2.809,9.183,-4.328
0.053,1.012,-0.070,-2.893,10.069,-3.626
0.037,1.005,-0.065,-2.656,10.290,-2.344
0.044,1.010,-0.060,-3.099,8.885,-0.252
0.040,1.010,-0.057,-3.573,6.603,2.840
0.049,1.017,-0.049,-4.023,4.542,4.908
0.054,1.013,-0.045,-4.740,2.313,6.328
0.058,1.011,-0.054,-4.969,2.160,6.977
0.063,0.995,-0.054,-4.183,2.374,7.275
0.082,1.007,-0.057,-3.046,4.031,7.260
0.077,0.999,-0.048,-2.466,4.763,6.298
0.080,1.007,-0.046,-2.153,4.901,4.611
0.080,0.998,-0.049,-1.771,6.527,2.824
0.085,1.010,-0.053,-0.992,7.954,1.939
0.078,1.008,-0.041,-0.473,7.076,2.160
0.078,1.009,-0.040,-0.565,5.573,2.649
0.080,1.005,-0.036,-0.374,4.130,2.725
0.073,1.003,-0.046,0.038,4.176,2.748
0.085,1.005,-0.066,0.115,4.489,3.061
0.092,1.003,-0.052,0.305,5.168,3.183
0.086,1.004,-0.056,0.084,6.084,3.145
0.089,0.992,-0.049,0.160,5.328,2.947
0.090,0.996,-0.057,0.168,4.153,3.176
0.093,0.998,-0.051,0.206,4.099,3.214

-1.078,0.637,-0.237,147.611,8.740,-250.137
-1.441,0.847,-0.447,144.000,10.504,-250.137
-1.698,1.136,-0.641,123.130,6.092,-250.137
-1.936,1.181,-0.692,84.687,-11.595,-204.389
-1.994,1.274,-0.781,33.282,-24.511,-99.718
-2.000,1.216,-0.750,-10.382,-27.588,1.504
-1.907,1.101,-0.624,-39.053,-35.000,75.076
-1.708,0.968,-0.460,-55.443,-35.084,126.618
-1.473,0.806,-0.274,-61.595,-41.405,167.206
-1.260,0.720,-0.166,-58.595,-50.901,188.710
-1.062,0.657,-0.104,-50.931,-56.435,198.870
-0.879,0.639,-0.091,-40.328,-54.237,198.221
-0.720,0.636,-0.101,-28.542,-44.206,188.748
-0.614,0.615,-0.116,-15.809,-27.786,175.031
-0.519,0.629,-0.133,-3.275,-10.305,159.061
-0.449,0.656,-0.148,4.076,0.137,145.634
-0.387,0.686,-0.166,4.580,3.176,135.359
-0.362,0.720,-0.189,0.069,-1.015,125.611
-0.333,0.763,-0.211,-6.198,-5.740,117.580
-0.320,0.804,-0.228,-13.771,-9.466,111.366
-0.299,0.834,-0.233,-20.351,-14.611,107.481
-0.278,0.859,-0.245,-25.298,-15.511,103.557
-0.250,0.872,-0.239,-28.122,-11.267,100.603
-0.215,0.886,-0.229,-30.458,-4.359,97.802
-0.187,0.897,-0.204,-32.038,5.023,94.069
-0.173,0.892,-0.168,-33.374,10.733,89.359
-0.147,0.906,-0.124,-34.115,11.641,83.618
-0.132,0.912,-0.106,-34.038,11.053,78.198
-0.129,0.922,-0.081,-33.229,9.885,72.939
-0.126,0.933,-0.066,-31.763,6.305,69.382
-0.125,0.945,-0.036,-29.374,-1.374,67.191
-0.118,0.947,-0.023,-26.282,-9.313,66.840
-0.108,0.967,-0.020,-23.176,-16.542,67.809
-0.097,0.978,-0.019,-19.565,-19.565,68.466
-0.089,0.979,-0.033,-15.786,-20.092,68.824
-0.087,0.979,-0.030,-11.817,-20.557,69.183
-0.074,0.981,-0.033,-8.916,-19.954,69.244
-0.063,0.974,-0.037,-5.710,-20.168,69.107
-0.050,0.978,-0.036,-3.366,-22.008,68.931
-0.030,0.988,-0.037,-1.672,-22.985,67.672
-0.015,0.980,-0.036,-0.649,-24.450,65.107
-0.003,0.967,-0.039,0.160,-27.328,61.939
0.009,0.965,-0.056,1.656,-29.305,58.290
0.028,0.968,-0.065,3.840,-26.763,53.824
0.030,0.956,-0.082,5.641,-21.748,48.740
0.033,0.953,-0.081,7.443,-17.099,42.748
0.021,0.977,-0.086,8.573,-13.817,37.519
0.040,0.973,-0.092,9.069,-10.908,31.511
0.033,0.964,-0.104,9.427,-5.489,27.099
0.016,0.979,-0.104,9.046,-3.931,20.725
0.002,0.969,-0.107,8.046,-4.954,15.160
0.000,0.979,-0.124,7.473,-4.351,11.092
-0.018,0.983,-0.120,7.000,-3.046,9.855
-0.027,0.988,-0.121,6.305,-2.450,9.496
-0.019,0.993,-0.131,5.290,-1.672,10.160
-0.026,0.996,-0.126,4.542,-0.237,11.298
-0.019,1.005,-0.121,3.634,0.779,12.061
-0.015,1.011,-0.121,2.458,1.901,12.695
-0.015,1.011,-0.119,1.198,3.382,13.992
-0.016,1.008,-0.121,-0.061,3.985,15.595
-0.023,1.012,-0.109,-1.221,3.679,17.137
-0.017,1.014,-0.112,-2.603,2.878,19.069
-0.005,1.014,-0.101,-3.840,0.802,21.313
-0.006,1.010,-0.097,-4.496,-0.405,23.229
0.011,1.005,-0.095,-5.206,-1.595,24.542
0.030,1.002,-0.094,-5.344,-4.099,24.992
0.042,0.998,-0.080,-5.389,-5.672,24.817
0.049,0.994,-0.081,-4.954,-6.267,23.779
0.058,0.995,-0.081,-5.092,-6.427,22.176
0.065,0.994,-0.083,-4.725,-5.626,20.023
0.074,0.982,-0.083,-3.298,-5.267,17.519
0.077,0.984,-0.087,-2.298,-4.588,15.473
0.089,0.985,-0.094,-1.672,-2.351,12.786
0.093,0.973,-0.089,-1.076,-0.947,9.511
0.101,0.987,-0.096,-0.916,0.603,6.290
0.096,0.984,-0.096,-1.069,1.931,3.328
0.090,0.986,-0.088,-1.511,2.641,0.870
0.084,0.987,-0.094,-2.008,3.664,-1.977
0.069,0.984,-0.096,-1.756,4.534,-3.695
0.062,0.993,-0.087,-1.382,5.351,-4.160
0.065,1.000,-0.090,-1.511,5.809,-4.153
0.048,1.005,-0.090,-1.702,6.794,-3.870
0.037,1.007,-0.079,-1.519,7.435,-3.580
0.036,1.006,-0.073,-1.160,6.802,-1.840
0.029,1.013,-0.088,-0.756,5.672,-0.527
0.031,0.999,-0.082,-0.779,4.489,0.321
0.031,1.002,-0.084,-0.794,3.092,1.107
0.037,1.003,-0.097,-0.718,2.183,1.588
0.038,1.006,-0.086,-0.481,2.008,2.061
0.035,1.001,-0.097,-0.550,1.725,2.443
0.044,1.007,-0.091,-0.771,1.053,2.198
0.042,0.998,-0.090,-1.588,0.061,2.099
0.044,1.000,-0.104,-1.687,1.260,2.031
0.042,0.998,-0.101,-1.435,3.962,1.237
0.039,1.001,-0.093,-1.817,5.626,-0.145
0.037,1.007,-0.097,-2.351,5.985,-0.763
0.034,1.003,-0.093,-2.359,5.618,-0.947
0.030,1.007,-0.105,-2.046,5.969,-1.130
0.021,0.997,-0.083,-2.290,6.282,-1.160
0.025,1.005,-0.093,-2.191,6.046,-0.695
0.019,1.008,-0.092,-1.939,6.824,-0.550
0.022,1.010,-0.079,-1.901,7.458,0.198
0.011,1.010,-0.086,-2.221,7.718,1.053
0.019,1.011,-0.085,-2.534,7.824,1.626
0.027,1.012,-0.074,-2.702,7.603,2.252
0.020,1.008,-0.070,-2.908,6.550,2.687
0.034,1.012,-0.082,-2.672,6.267,3.145
0.038,1.015,-0.075,-1.832,6.817,3.481
0.035,1.006,-0.076,-1.061,7.328,4.160
0.034,1.012,-0.076,-0.855,7.038,4.725
0.042,1.008,-0.070,-1.008,6.366,5.122
0.048,1.004,-0.076,-1.107,6.153,5.298
0.052,1.001,-0.074,-1.046,5.794,5.290
0.049,1.011,-0.083,-1.061,6.321,5.489
0.060,1.010,-0.085,-0.817,7.397,5.336
0.067,1.005,-0.092,-0.557,7.802,5.076
0.058,1.009,-0.076,-0.366,8.145,4.687
0.060,1.003,-0.078,-0.244,7.603,4.145
0.060,1.006,-0.070,-0.351,6.382,3.725

-0.982,0.608,-0.293,171.107,-22.870,-250.137
-1.335,0.822,-0.469,143.481,-30.145,-250.137
-1.644,0.995,-0.656,105.954,-32.969,-250.137
-1.862,1.125,-0.762,64.298,-35.145,-250.137
-1.983,1.166,-0.810,28.695,-24.893,-158.328
-2.000,1.112,-0.746,-2.168,-20.122,-63.489
-1.932,1.001,-0.571,-27.282,-24.237,15.214
-1.744,0.892,-0.446,-40.992,-23.069,66.779
-1.555,0.730,-0.309,-40.840,-22.573,106.038
-1.339,0.624,-0.197,-30.023,-21.282,133.176
-1.139,0.580,-0.115,-18.168,-26.275,148.076
-1.002,0.558,-0.087,-8.733,-31.282,151.427
-0.885,0.550,-0.105,1.550,-30.427,148.084
-0.797,0.568,-0.140,10.076,-23.840,139.496
-0.723,0.586,-0.177,14.954,-15.435,131.267
-0.664,0.623,-0.215,16.252,-6.053,123.237
-0.626,0.659,-0.259,12.427,2.237,116.534
-0.600,0.687,-0.280,4.198,6.733,109.198
-0.584,0.720,-0.301,-6.504,9.344,102.817
-0.545,0.763,-0.299,-15.924,12.176,98.832
-0.509,0.774,-0.304,-24.015,21.031,96.511
-0.478,0.782,-0.283,-29.893,29.901,94.466
-0.474,0.793,-0.250,-34.450,33.252,89.962
-0.449,0.796,-0.223,-36.305,34.427,84.809
-0.422,0.808,-0.214,-35.702,38.885,79.115
-0.404,0.806,-0.163,-33.214,42.908,74.382
-0.388,0.818,-0.153,-29.649,43.847,70.710
-0.370,0.844,-0.128,-25.947,42.573,67.756
-0.367,0.857,-0.124,-22.359,38.687,65.191
-0.350,0.880,-0.113,-19.611,33.061,64.580
-0.353,0.895,-0.122,-16.802,28.130,64.908
-0.336,0.909,-0.108,-15.168,24.519,65.710
-0.326,0.920,-0.111,-14.061,18.855,67.122
-0.311,0.931,-0.112,-12.702,12.924,69.374
-0.301,0.938,-0.121,-11.221,8.122,71.198
-0.286,0.949,-0.115,-9.458,4.550,72.275
-0.283,0.953,-0.125,-7.008,2.137,72.718
-0.263,0.956,-0.128,-4.565,1.771,72.817
-0.264,0.949,-0.133,-1.786,2.244,72.771
-0.243,0.950,-0.134,1.542,3.176,72.481
-0.246,0.935,-0.137,4.710,3.153,72.748
-0.218,0.950,-0.133,7.160,0.634,73.687
-0.199,0.945,-0.142,7.916,-2.901,74.313
-0.197,0.954,-0.142,8.084,-6.901,73.313
-0.187,0.956,-0.157,8.298,-9.473,71.786
-0.170,0.974,-0.090,8.221,-10.038,70.359
-0.153,0.948,-0.170,7.855,-12.641,68.282
-0.146,0.951,-0.192,8.412,-9.702,66.359
-0.146,0.948,-0.196,9.023,-8.885,62.794
-0.132,0.947,-0.204,8.679,-8.496,58.893
-0.123,0.950,-0.223,8.435,-5.267,54.931
-0.112,0.951,-0.224,7.992,-0.649,52.275
-0.119,0.959,-0.221,6.122,-0.359,50.687
-0.110,0.960,-0.229,3.588,-2.763,49.809
-0.093,0.964,-0.226,0.962,-5.641,48.634
-0.094,0.964,-0.218,-2.328,-10.565,47.740
-0.077,0.967,-0.226,-6.481,-17.656,46.427
-0.063,0.971,-0.210,-10.321,-25.046,45.443
-0.057,0.967,-0.206,-13.275,-31.511,44.298
-0.045,0.970,-0.207,-15.336,-35.275,43.176
-0.038,0.967,-0.217,-15.985,-34.046,41.672
-0.030,0.979,-0.219,-15.031,-28.160,40.191
-0.045,0.968,-0.205,-13.473,-21.053,38.267
-0.030,0.978,-0.202,-11.282,-14.443,36.634
-0.029,0.984,-0.193,-8.947,-6.954,34.908
-0.032,0.987,-0.185,-6.992,-1.565,33.847
-0.026,0.990,-0.185,-5.809,1.237,33.107
-0.025,0.984,-0.178,-5.412,1.817,32.366
-0.019,0.992,-0.170,-5.626,1.351,32.115
-0.002,0.995,-0.166,-6.702,0.809,31.847
-0.010,0.992,-0.169,-8.000,-1.038,31.412
-0.004,0.984,-0.159,-8.725,-4.260,31.359
0.008,0.992,-0.165,-9.046,-6.733,30.947
0.005,0.988,-0.166,-8.885,-7.458,30.099
0.015,0.987,-0.167,-8.069,-7.198,29.221
0.021,0.987,-0.167,-7.435,-6.695,27.756
0.023,0.979,-0.172,-6.779,-5.672,26.191
0.033,0.987,-0.167,-6.053,-4.420,24.336
0.039,0.989,-0.156,-5.893,-3.366,22.687
0.044,0.992,-0.161,-5.863,-2.275,20.412
0.038,0.988,-0.164,-6.252,-1.038,19.038
0.041,0.993,-0.169,-6.260,-0.328,17.908
0.047,0.992,-0.162,-6.374,1.443,17.137
0.056,0.989,-0.155,-6.519,2.176,16.489
0.056,0.988,-0.164,-6.824,2.809,15.267
0.055,0.982,-0.166,-6.832,3.198,13.802
0.060,0.990,-0.165,-6.847,4.282,12.519
0.062,0.986,-0.145,-6.695,4.221,11.176
0.066,0.997,-0.141,-6.748,4.328,10.405
0.062,0.987,-0.152,-7.122,5.061,9.763
0.070,0.994,-0.138,-7.275,5.206,9.336
0.065,0.995,-0.143,-7.695,5.260,8.511
0.074,0.990,-0.147,-7.794,4.809,7.565
0.072,1.001,-0.135,-8.321,4.603,6.534
0.068,0.996,-0.141,-8.588,5.534,5.107
0.067,0.999,-0.136,-8.382,6.038,3.893
0.068,0.994,-0.135,-7.962,5.687,3.015
0.063,0.996,-0.131,-7.511,5.359,2.656
0.064,1.002,-0.128,-6.962,5.038,2.267
0.059,0.995,-0.113,-6.321,4.702,2.115
0.062,0.996,-0.121,-5.290,4.870,1.824
0.059,1.006,-0.119,-4.427,5.664,1.832
0.054,1.005,-0.120,-3.664,6.290,1.771
0.053,1.002,-0.124,-2.977,5.443,1.763
0.053,1.004,-0.120,-2.687,4.336,2.321
0.048,1.007,-0.119,-2.397,4.878,2.321
0.047,1.007,-0.123,-2.206,5.763,1.756
0.049,1.003,-0.125,-1.802,6.038,1.519
0.044,1.013,-0.131,-1.626,6.924,1.786
0.047,1.010,-0.124,-1.954,6.985,1.969
0.042,1.002,-0.126,-2.214,6.092,1.908
0.043,1.001,-0.122,-2.511,5.115,2.069
0.051,1.009,-0.130,-2.137,5.389,2.183
0.046,1.006,-0.124,-1.695,5.336,2.466
0.049,1.000,-0.135,-1.496,5.160,2.626
0.056,0.996,-0.124,-1.756,4.855,2.260
0.052,0.999,-0.127,-2.191,5.298,1.420
0.057,0.999,-0.131,-2.595,6.260,0.481
0.066,0.996,-0.136,-2.786,8.122,0.153

-1.131,0.490,-0.270,219.145,66.649,-250.137
-1.525,0.787,-0.554,201.206,18.084,-250.137
-1.817,1.126,-0.812,157.809,-5.557,-250.137
-2.000,1.231,-0.992,99.000,-21.519,-249.687
-2.000,1.346,-1.095,41.344,-25.977,-133.962
-2.000,1.318,-0.997,-10.107,-23.847,-20.985
-2.000,1.211,-0.832,-48.221,-33.771,55.908
-1.799,1.049,-0.654,-76.847,-34.450,117.557
-1.538,0.867,-0.489,-87.740,-31.672,157.786
-1.274,0.709,-0.338,-84.672,-30.130,178.511
-1.060,0.623,-0.232,-73.756,-30.031,186.099
-0.871,0.569,-0.159,-59.740,-29.595,183.252
-0.722,0.564,-0.122,-44.863,-27.000,172.092
-0.603,0.568,-0.115,-29.870,-24.962,154.000
-0.537,0.589,-0.125,-17.069,-22.840,136.450
-0.483,0.616,-0.157,-4.115,-19.656,120.290
-0.448,0.638,-0.178,6.496,-15.008,108.626
-0.443,0.645,-0.206,12.611,-13.595,101.763
-0.423,0.667,-0.241,15.763,-18.260,95.885
-0.405,0.701,-0.268,15.443,-22.229,90.939
-0.367,0.755,-0.299,12.000,-23.458,86.023
-0.344,0.808,-0.334,7.046,-19.817,80.802
-0.336,0.830,-0.342,1.855,-15.885,74.679
-0.333,0.850,-0.352,-2.840,-11.191,68.550
-0.323,0.871,-0.357,-6.588,-2.053,62.053
-0.305,0.891,-0.342,-9.679,11.740,57.168
-0.295,0.889,-0.315,-12.863,23.252,53.496
-0.288,0.899,-0.286,-17.275,31.176,50.038
-0.300,0.915,-0.250,-22.214,31.985,47.595
-0.300,0.909,-0.226,-26.527,27.901,46.267
-0.306,0.914,-0.205,-29.351,20.954,45.817
-0.304,0.919,-0.202,-30.496,14.863,46.260
-0.302,0.929,-0.173,-30.420,8.168,48.443
-0.295,0.930,-0.174,-29.153,2.344,51.756
-0.289,0.933,-0.166,-26.794,-3.710,54.939
-0.280,0.930,-0.155,-23.771,-8.840,57.863
-0.281,0.935,-0.147,-20.099,-12.969,59.275
-0.270,0.948,-0.151,-16.496,-15.282,59.992
-0.266,0.955,-0.156,-13.053,-14.992,60.351
-0.253,0.953,-0.162,-10.275,-14.374,60.779
-0.248,0.955,-0.166,-8.603,-14.542,61.504
-0.225,0.960,-0.164,-7.252,-15.183,62.237
-0.217,0.942,-0.165,-7.153,-17.275,62.786
-0.196,0.963,-0.162,-8.130,-21.115,62.519
-0.184,0.947,-0.167,-9.786,-23.351,60.679
-0.172,0.950,-0.167,-10.458,-25.267,58.130
-0.155,0.947,-0.170,-10.313,-25.046,55.267
-0.158,0.944,-0.184,-9.267,-22.901,51.939
-0.146,0.948,-0.177,-7.382,-18.221,47.107
-0.143,0.952,-0.178,-5.099,-13.000,42.763
-0.135,0.964,-0.196,-2.916,-7.008,38.466
-0.132,0.966,-0.186,-1.947,-2.939,34.573
-0.138,0.954,-0.192,-1.206,1.565,32.115
-0.132,0.958,-0.187,-1.794,1.840,29.275
-0.132,0.965,-0.187,-3.313,-0.267,26.130
-0.127,0.968,-0.197,-4.779,-1.641,23.840
-0.131,0.965,-0.188,-6.000,-2.939,22.863
-0.135,0.972,-0.193,-7.405,-4.496,22.656
-0.124,0.978,-0.186,-8.527,-4.496,22.328
-0.122,0.985,-0.196,-8.893,-3.122,22.435
-0.129,0.974,-0.182,-8.863,-1.870,22.939
-0.117,0.984,-0.191,-8.847,-1.321,23.481
-0.118,0.988,-0.187,-8.664,0.962,23.763
-0.116,0.993,-0.189,-8.740,2.573,23.962
-0.116,0.996,-0.184,-9.450,3.649,24.931
-0.109,0.999,-0.177,-10.939,3.374,26.244
-0.110,0.999,-0.162,-12.435,1.267,27.511
-0.102,1.000,-0.146,-13.725,-3.198,29.137
-0.092,0.996,-0.147,-14.611,-7.817,30.809
-0.086,1.000,-0.136,-15.145,-11.275,31.939
-0.072,0.995,-0.135,-15.954,-14.153,32.672
-0.057,0.991,-0.137,-16.580,-14.977,32.649
-0.061,0.994,-0.139,-16.382,-13.618,31.450
-0.051,0.995,-0.133,-15.885,-11.198,30.092
-0.046,0.988,-0.140,-14.595,-6.786,29.336
-0.047,0.988,-0.135,-13.405,-1.679,28.947
-0.054,1.001,-0.131,-12.534,3.282,28.496
-0.054,1.001,-0.135,-11.969,6.595,28.344
-0.051,1.005,-0.125,-11.183,7.832,28.924
-0.048,1.008,-0.113,-10.977,8.046,29.458
-0.049,1.005,-0.110,-11.351,6.634,29.840
-0.051,1.006,-0.106,-11.305,5.000,30.176
-0.038,1.011,-0.115,-10.740,6.420,30.595
-0.040,1.000,-0.120,-9.817,9.176,31.473
-0.042,1.002,-0.126,-8.840,12.321,32.221
-0.031,0.997,-0.133,-7.985,16.725,32.672
-0.035,1.000,-0.140,-6.908,22.260,33.504
-0.013,1.000,-0.133,-6.527,26.771,34.748
-0.018,1.005,-0.141,-7.107,27.328,35.527
-0.010,0.998,-0.132,-8.244,25.061,35.924
0.002,0.996,-0.117,-10.191,21.504,35.824
0.021,0.992,-0.121,-11.649,18.878,35.939
0.036,0.991,-0.127,-13.046,17.443,35.748
0.039,0.983,-0.118,-14.321,14.664,35.374
0.055,0.984,-0.121,-15.756,10.618,34.855
0.060,0.983,-0.127,-16.809,8.473,33.901
0.071,0.983,-0.121,-17.206,9.176,32.809
0.073,0.976,-0.112,-17.382,10.969,31.221
0.100,1.003,-0.111,-17.573,12.672,30.496
0.095,0.971,-0.117,-17.847,14.847,29.023
0.110,0.986,-0.102,-18.260,16.191,27.359
0.123,0.986,-0.101,-18.550,16.611,25.511
0.123,0.980,-0.088,-18.885,15.107,23.847
0.125,0.980,-0.084,-19.420,12.267,22.336
0.129,0.980,-0.073,-19.908,8.939,19.908
0.146,0.978,-0.070,-20.641,6.267,17.817
0.154,0.980,-0.062,-21.145,3.855,15.863
0.147,0.978,-0.047,-21.458,2.649,13.687
0.152,0.988,-0.039,-21.504,4.351,10.649
0.155,0.982,-0.043,-20.840,8.008,8.389
0.152,0.991,-0.029,-19.229,10.947,7.031
0.156,0.990,-0.025,-17.489,12.595,6.092
0.141,0.992,-0.015,-15.702,12.763,4.939
0.142,0.994,-0.011,-13.740,11.687,3.405
0.132,0.992,-0.003,-12.092,10.008,1.931
0.135,0.993,0.002,-10.496,8.176,0.649
0.127,1.002,0.000,-8.916,7.107,-0.244
0.125,0.999,-0.000,-7.534,7.389,-0.489
0.124,1.003,-0.009,-5.710,7.321,0.336

-1.069,0.418,-0.436,215.656,-51.122,-250.137
-1.454,0.556,-0.648,195.695,-61.252,-250.137
-1.719,0.793,-0.863,163.977,-62.931,-250.137
-2.000,0.909,-0.987,119.176,-74.573,-250.137
-2.000,1.040,-1.142,61.321,-81.763,-184.511
-2.000,1.068,-1.188,11.412,-56.771,-78.015
-2.000,1.035,-1.003,-31.679,-48.282,19.863
-2.000,0.900,-0.784,-65.962,-54.008,93.015
-1.787,0.749,-0.596,-85.061,-47.427,142.160
-1.531,0.604,-0.402,-87.435,-37.023,174.824
-1.291,0.547,-0.247,-79.595,-31.359,188.122
-1.075,0.501,-0.137,-66.176,-26.038,188.382
-0.933,0.498,-0.092,-51.458,-22.595,181.137
-0.832,0.500,-0.058,-35.580,-21.565,170.214
-0.758,0.502,-0.047,-19.023,-23.962,159.382
-0.694,0.523,-0.066,-2.206,-26.084,150.504
-0.615,0.548,-0.111,12.855,-23.809,144.130
-0.563,0.582,-0.158,24.733,-19.206,138.397
-0.522,0.586,-0.189,33.802,-16.565,132.031
-0.480,0.614,-0.218,39.282,-20.130,125.427
-0.438,0.652,-0.286,39.832,-25.046,117.809
-0.397,0.686,-0.320,37.458,-27.000,110.573
-0.384,0.708,-0.366,33.374,-27.061,101.282
-0.374,0.741,-0.388,28.366,-25.137,90.840
-0.379,0.758,-0.421,22.794,-19.809,80.427
-0.372,0.769,-0.443,17.038,-12.076,71.695
-0.370,0.792,-0.440,9.893,-2.076,63.847
-0.366,0.815,-0.446,3.542,7.237,58.229
-0.369,0.810,-0.430,-3.916,15.191,54.511
-0.377,0.836,-0.419,-10.840,17.824,52.733
-0.376,0.847,-0.389,-18.305,16.870,52.328
-0.373,0.856,-0.373,-23.145,14.031,53.336
-0.370,0.854,-0.356,-26.679,10.779,54.931
-0.377,0.851,-0.326,-28.542,5.466,56.397
-0.371,0.871,-0.310,-29.344,1.771,57.466
-0.360,0.870,-0.312,-28.443,1.008,58.863
-0.350,0.884,-0.308,-27.084,2.344,60.084
-0.351,0.896,-0.283,-26.053,0.924,61.779
-0.342,0.886,-0.269,-24.878,-0.328,63.901
-0.329,0.907,-0.261,-23.489,-3.099,65.145
-0.318,0.907,-0.253,-22.282,-5.656,65.924
-0.309,0.908,-0.245,-21.237,-6.038,65.962
-0.301,0.918,-0.232,-20.817,-7.595,64.779
-0.301,0.916,-0.222,-20.038,-9.092,63.618
-0.292,0.919,-0.228,-18.214,-10.237,62.405
-0.278,0.923,-0.234,-16.160,-8.611,61.168
-0.281,0.929,-0.231,-14.603,-6.015,59.863
-0.278,0.922,-0.233,-13.710,-5.840,58.573
-0.266,0.925,-0.228,-12.389,-4.954,57.153
-0.306,0.947,-0.178,-11.076,-5.473,55.450
-0.250,0.950,-0.218,-10.366,-6.756,54.794
-0.254,0.939,-0.235,-9.000,-5.351,55.160
-0.246,0.937,-0.222,-8.168,-5.420,53.969
-0.227,0.949,-0.229,-8.038,-6.832,52.603
-0.222,0.940,-0.220,-8.023,-8.664,51.534
-0.220,0.944,-0.229,-7.870,-11.305,51.008
-0.206,0.946,-0.229,-7.863,-10.832,50.076
-0.202,0.953,-0.234,-8.870,-12.802,49.443
-0.191,0.952,-0.243,-9.641,-13.382,48.863
-0.172,0.955,-0.239,-9.947,-11.069,48.198
-0.168,0.956,-0.243,-10.588,-9.534,47.466
-0.170,0.956,-0.236,-11.733,-9.374,46.885
-0.170,0.961,-0.255,-12.397,-8.985,45.626
-0.154,0.966,-0.249,-13.145,-7.481,45.626
-0.150,0.972,-0.240,-14.534,-6.328,46.000
-0.143,0.982,-0.240,-16.466,-6.679,46.916
-0.132,0.980,-0.233,-18.496,-7.153,47.985
-0.121,0.984,-0.238,-20.328,-7.412,48.771
-0.117,0.980,-0.219,-22.305,-9.740,49.695
-0.102,0.979,-0.223,-23.641,-12.214,50.366
-0.101,0.967,-0.222,-24.611,-14.092,50.832
-0.099,0.970,-0.199,-25.000,-14.458,51.336
-0.079,0.972,-0.222,-25.046,-14.092,51.656
-0.072,0.973,-0.210,-24.771,-12.290,51.664
-0.051,0.972,-0.201,-23.756,-9.435,51.130
-0.048,0.969,-0.193,-22.756,-9.901,50.924
-0.047,0.959,-0.181,-21.206,-9.573,49.557
-0.027,0.973,-0.185,-19.855,-7.573,47.779
-0.014,0.972,-0.185,-18.695,-4.290,46.046
-0.006,0.978,-0.173,-18.145,-2.443,44.550
0.014,0.991,-0.165,-18.885,-1.588,43.176
0.008,0.987,-0.167,-20.260,-1.962,41.519
0.014,0.987,-0.164,-22.275,-4.206,40.053
0.014,0.988,-0.169,-24.061,-5.565,38.275
0.019,0.989,-0.164,-25.504,-5.939,36.603
0.028,0.975,-0.162,-26.427,-6.489,35.359
0.038,0.987,-0.162,-26.664,-5.840,34.206
0.035,0.981,-0.157,-26.076,-3.145,33.099
0.042,0.976,-0.136,-25.290,0.008,31.305
0.036,0.979,-0.132,-24.809,1.603,29.595
0.043,0.987,-0.122,-24.359,2.206,28.389
0.053,0.990,-0.125,-23.962,3.206,27.145
0.048,0.999,-0.120,-24.115,4.603,26.191
0.046,0.989,-0.108,-24.061,6.008,25.023
0.058,1.002,-0.116,-24.145,6.412,23.908
0.052,1.000,-0.107,-23.878,7.168,23.328
0.045,0.991,-0.102,-23.046,8.580,22.069
0.059,0.990,-0.099,-21.550,11.420,20.542
0.054,0.991,-0.077,-20.916,10.756,19.954
0.065,1.031,-0.083,-20.565,7.397,19.931
0.056,0.978,-0.069,-19.863,6.618,19.969
0.058,0.992,-0.067,-18.443,5.748,19.221
0.062,0.999,-0.068,-17.160,4.290,18.260
0.065,0.995,-0.060,-16.031,2.198,17.847
0.072,0.999,-0.066,-14.962,0.687,17.832
0.077,1.004,-0.060,-13.756,-0.771,17.855
0.075,0.999,-0.062,-13.046,-1.618,17.649
0.081,0.994,-0.059,-12.290,-2.145,16.779
0.085,0.990,-0.060,-11.275,-1.802,15.802
0.097,0.998,-0.062,-10.061,0.084,15.069
0.096,0.999,-0.067,-8.649,2.618,14.282
0.093,1.001,-0.059,-7.481,5.260,12.962
0.092,1.005,-0.053,-6.649,6.977,11.397
0.099,0.997,-0.050,-6.092,7.290,10.145
0.092,0.988,-0.058,-5.443,6.344,9.137
0.102,0.997,-0.050,-4.718,5.252,8.550
0.102,1.000,-0.057,-4.061,4.290,7.649
0.097,0.998,-0.053,-3.954,2.695,7.282
0.103,1.002,-0.047,-4.206,0.916,6.992

-1.142,0.352,-0.486,250.130,-19.267,-250.137
-1.463,0.517,-0.772,249.534,-46.260,-250.137
-1.643,0.809,-1.133,207.023,-48.099,-250.137
-1.879,1.043,-1.349,154.718,-29.733,-250.137
-2.000,1.164,-1.440,87.863,-32.412,-195.519
-2.000,1.184,-1.496,17.809,-29.168,-99.733
-2.000,1.175,-1.401,-49.695,-3.412,2.168
-1.969,1.008,-1.066,-101.290,-0.992,81.298
-1.752,0.866,-0.817,-130.496,-4.244,133.466
-1.510,0.716,-0.544,-144.695,-9.015,176.740
-1.302,0.605,-0.303,-141.985,-27.069,207.458
-1.084,0.544,-0.160,-124.779,-44.885,223.466
-0.894,0.525,-0.071,-99.878,-50.710,225.382
-0.743,0.520,-0.028,-74.802,-52.046,219.153
-0.627,0.553,0.002,-49.878,-55.137,206.870
-0.531,0.576,-0.012,-30.481,-57.504,194.382
-0.452,0.604,-0.037,-13.443,-59.176,180.351
-0.380,0.657,-0.092,-2.519,-61.763,167.076
-0.328,0.697,-0.143,2.618,-63.382,157.061
-0.296,0.726,-0.196,6.450,-62.321,145.420
-0.280,0.754,-0.244,8.756,-59.481,134.947
-0.259,0.777,-0.289,10.489,-53.992,124.687
-0.253,0.760,-0.316,13.244,-47.718,111.183
-0.235,0.808,-0.337,14.427,-40.405,98.107
-0.219,0.833,-0.353,13.282,-29.771,85.924
-0.212,0.846,-0.367,11.473,-16.122,75.802
-0.190,0.867,-0.370,8.305,-3.084,67.802
-0.205,0.866,-0.351,4.046,5.031,61.084
-0.215,0.868,-0.327,-0.290,7.603,55.863
-0.201,0.874,-0.322,-5.198,8.626,52.015
-0.196,0.888,-0.318,-8.893,8.794,49.916
-0.204,0.883,-0.314,-11.634,7.099,47.939
-0.208,0.888,-0.310,-13.046,5.282,46.534
-0.208,0.902,-0.308,-14.534,2.145,45.328
-0.208,0.912,-0.305,-15.244,-1.046,44.954
-0.210,0.920,-0.308,-15.893,-2.359,45.366
-0.210,0.938,-0.302,-17.015,-4.176,46.290
-0.210,0.945,-0.281,-18.221,-6.191,48.061
-0.208,0.950,-0.292,-18.863,-5.992,50.466
-0.202,0.958,-0.286,-19.534,-3.405,52.695
-0.190,0.954,-0.266,-19.931,-1.176,54.901
-0.186,0.956,-0.250,-20.931,-2.779,56.031
-0.165,0.953,-0.238,-21.893,-5.328,56.847
-0.157,0.958,-0.231,-23.153,-7.794,56.985
-0.145,0.963,-0.241,-24.023,-8.985,56.573
-0.143,0.959,-0.224,-24.260,-8.458,55.763
-0.133,0.958,-0.213,-23.565,-10.282,55.092
-0.133,0.964,-0.215,-22.252,-11.412,53.450
-0.129,0.945,-0.164,-20.550,-10.481,51.863
-0.116,0.933,-0.172,-19.351,-10.878,49.458
-0.106,0.982,-0.208,-18.466,-9.359,48.794
-0.110,0.972,-0.187,-18.565,-7.550,45.878
-0.097,0.979,-0.177,-19.267,-10.557,43.221
-0.088,0.972,-0.195,-18.595,-10.595,41.229
-0.072,0.979,-0.195,-16.969,-8.336,39.672
-0.073,0.976,-0.184,-15.763,-6.305,38.603
-0.075,0.981,-0.169,-14.878,-5.885,37.244
-0.070,0.978,-0.180,-14.221,-5.153,36.115
-0.062,0.979,-0.184,-13.733,-3.794,34.824
-0.061,0.992,-0.178,-13.863,-4.008,34.023
-0.049,0.994,-0.179,-14.420,-4.504,33.985
-0.040,0.992,-0.183,-14.832,-4.733,34.603
-0.044,0.998,-0.182,-15.328,-5.107,36.008
-0.031,0.995,-0.175,-15.458,-3.954,36.527
-0.022,0.999,-0.162,-16.427,-4.534,37.405
-0.023,0.999,-0.170,-17.557,-7.053,37.939
-0.011,0.992,-0.170,-17.916,-7.046,37.931
0.001,0.994,-0.173,-18.137,-5.802,37.595
0.007,0.998,-0.169,-19.000,-6.107,37.580
0.018,0.989,-0.151,-19.557,-7.664,37.405
0.031,0.989,-0.166,-19.771,-7.817,36.779
0.040,0.984,-0.157,-19.840,-8.740,36.382
0.043,0.985,-0.145,-19.855,-10.565,35.427
0.062,0.981,-0.151,-19.794,-11.084,33.756
0.063,0.984,-0.143,-20.099,-10.496,31.870
0.063,0.984,-0.143,-19.595,-10.198,30.634
0.059,0.989,-0.138,-19.672,-9.565,29.779
0.076,0.992,-0.132,-19.824,-8.908,29.160
0.074,0.986,-0.136,-20.145,-8.977,28.504
0.084,0.989,-0.141,-20.427,-9.069,27.840
0.082,0.988,-0.138,-21.435,-9.489,26.908
0.093,0.999,-0.126,-22.695,-9.969,25.947
0.090,0.990,-0.119,-23.832,-11.137,25.290
0.092,0.992,-0.120,-24.099,-10.931,24.466
0.098,0.997,-0.105,-24.351,-9.840,23.420
0.100,0.997,-0.101,-24.359,-7.420,21.977
0.093,0.992,-0.100,-23.901,-4.947,19.977
0.099,0.994,-0.090,-22.908,-2.015,18.359
0.097,0.994,-0.084,-22.191,0.458,17.527
0.099,0.991,-0.087,-21.099,2.695,17.198
0.095,0.990,-0.084,-20.359,4.130,16.687
0.102,0.993,-0.063,-19.985,4.573,16.405
0.100,0.985,-0.071,-19.183,4.206,15.794
0.099,0.995,-0.064,-17.947,4.893,15.000
0.108,1.000,-0.042,-16.664,4.969,14.931
0.103,0.998,-0.043,-14.924,2.664,14.527
0.109,1.001,-0.046,-13.550,1.053,13.779
0.113,0.992,-0.039,-12.305,-0.397,12.779
0.119,0.997,-0.036,-11.687,-2.336,12.000
0.122,0.999,-0.043,-10.969,-3.244,11.214
0.121,0.992,-0.044,-10.290,-2.588,10.656
0.124,0.996,-0.040,-9.496,-1.221,9.710
0.129,1.002,-0.039,-8.740,1.489,9.115
0.128,1.005,-0.048,-7.527,4.084,8.679
0.132,0.995,-0.045,-6.405,5.550,8.023
0.133,0.999,-0.038,-5.198,6.008,7.237
0.137,0.990,-0.028,-4.740,5.252,6.473
0.136,1.000,-0.039,-4.115,3.962,5.489
0.139,0.989,-0.037,-3.489,2.679,4.733
0.144,0.995,-0.040,-2.588,1.824,4.305
0.149,0.988,-0.037,-2.359,0.771,3.595
0.143,0.988,-0.053,-1.962,0.992,2.359
0.148,0.991,-0.050,-2.031,1.679,1.740
0.148,0.990,-0.051,-1.954,2.038,0.863
0.145,0.995,-0.056,-1.901,2.504,0.137
0.141,0.994,-0.061,-1.947,3.489,-0.496
0.128,1.000,-0.057,-2.076,4.160,-1.290
0.135,1.003,-0.054,-2.290,4.053,-1.458
0.134,0.992,-0.053,-2.260,3.779,-1.550

-1.066,0.435,-0.440,204.672,-1.786,-250.137
-1.406,0.682,-0.757,192.275,4.473,-250.137
-1.712,0.854,-0.986,158.939,6.718,-250.137
-1.899,0.972,-1.122,102.382,-1.237,-250.137
-1.997,1.082,-1.239,34.580,7.840,-230.252
-2.000,1.108,-1.154,-32.305,9.313,-128.443
-2.000,1.051,-1.075,-82.145,16.855,-28.687
-1.954,0.909,-0.807,-114.618,19.649,53.855
-1.762,0.768,-0.549,-132.809,15.695,112.832
-1.566,0.687,-0.342,-137.374,8.374,152.206
-1.387,0.588,-0.166,-130.924,-4.840,183.267
-1.212,0.538,-0.049,-116.099,-22.328,205.840
-1.009,0.522,0.045,-92.901,-38.985,220.122
-0.852,0.530,0.082,-67.550,-47.863,222.328
-0.713,0.552,0.089,-42.802,-50.908,215.023
-0.604,0.575,0.061,-20.702,-49.924,202.733
-0.513,0.612,0.034,-1.809,-45.947,188.496
-0.451,0.635,-0.007,11.450,-41.191,174.336
-0.393,0.680,-0.040,18.885,-37.061,161.618
-0.346,0.731,-0.075,23.573,-32.969,146.885
-0.323,0.765,-0.111,24.824,-29.053,133.359
-0.308,0.786,-0.145,24.008,-25.237,118.763
-0.295,0.814,-0.181,21.748,-22.458,104.313
-0.292,0.817,-0.212,19.145,-19.313,93.641
-0.267,0.827,-0.233,17.023,-14.733,84.756
-0.259,0.843,-0.253,14.802,-9.359,77.489
-0.253,0.844,-0.265,11.992,-4.947,71.611
-0.255,0.843,-0.270,9.084,-2.221,65.672
-0.251,0.851,-0.266,7.015,-0.412,60.420
-0.234,0.865,-0.265,5.153,0.740,55.656
-0.239,0.871,-0.262,4.000,1.252,52.565
-0.236,0.888,-0.257,2.939,1.336,50.519
-0.240,0.899,-0.265,1.313,0.565,48.664
-0.244,0.914,-0.258,-0.076,1.282,46.557
-0.244,0.923,-0.261,-1.321,3.069,45.679
-0.250,0.936,-0.254,-2.977,4.366,45.664
-0.239,0.950,-0.254,-5.504,5.901,46.450
-0.244,0.958,-0.249,-7.809,9.015,47.137
-0.238,0.963,-0.243,-10.634,10.534,48.695
-0.231,0.951,-0.250,-12.794,9.046,51.046
-0.229,0.953,-0.250,-13.969,6.947,53.137
-0.217,0.947,-0.224,-14.435,6.260,55.061
-0.210,0.955,-0.220,-15.053,4.183,56.611
-0.205,0.952,-0.201,-15.740,1.069,57.260
-0.197,0.959,-0.197,-16.160,-3.351,57.794
-0.172,0.958,-0.197,-15.794,-6.084,58.038
-0.174,0.956,-0.196,-15.435,-7.519,57.481
-0.157,0.958,-0.178,-14.656,-9.252,56.397
-0.152,0.951,-0.185,-14.313,-10.405,54.794
-0.135,0.938,-0.179,-13.824,-11.359,53.305
-0.134,0.946,-0.183,-13.626,-11.817,50.794
-0.121,0.963,-0.189,-13.962,-11.672,49.076
-0.114,0.966,-0.182,-12.977,-9.168,47.206
-0.103,0.966,-0.171,-12.168,-7.985,44.275
-0.100,0.969,-0.175,-11.550,-6.252,41.015
-0.094,0.967,-0.173,-10.863,-3.954,37.664
-0.098,0.975,-0.164,-10.206,-1.687,34.611
-0.091,0.982,-0.162,-9.748,-0.046,32.176
-0.090,0.984,-0.160,-9.588,1.382,30.290
-0.089,0.991,-0.169,-9.763,1.641,29.427
-0.095,0.990,-0.161,-10.275,1.214,29.198
-0.094,0.994,-0.156,-11.504,-0.649,29.275
-0.089,0.993,-0.157,-12.611,-2.802,29.817
-0.086,0.998,-0.162,-13.206,-3.481,31.046
-0.083,0.993,-0.164,-13.351,-4.412,32.710
-0.083,0.998,-0.158,-13.534,-6.458,34.351
-0.084,0.997,-0.152,-13.611,-8.267,35.290
-0.083,0.995,-0.156,-13.809,-8.992,36.183
-0.076,1.002,-0.156,-13.924,-8.580,36.977
-0.085,1.000,-0.157,-13.931,-6.603,38.237
-0.078,1.003,-0.156,-13.885,-4.847,39.817
-0.068,1.013,-0.146,-13.962,-4.595,42.565
-0.057,1.006,-0.145,-14.130,-4.634,44.244
-0.044,1.004,-0.143,-14.641,-5.740,45.779
-0.039,0.996,-0.134,-15.366,-8.183,46.962
-0.023,0.996,-0.141,-16.214,-11.374,48.160
-0.016,0.990,-0.142,-16.977,-14.847,49.374
-0.006,0.987,-0.133,-17.908,-17.542,49.611
-0.001,0.987,-0.144,-18.824,-20.557,50.313
0.007,0.985,-0.140,-19.748,-24.122,50.992
0.022,0.982,-0.138,-20.702,-27.809,51.489
0.031,0.987,-0.147,-21.893,-31.275,52.206
0.033,0.996,-0.138,-23.511,-33.748,52.634
0.067,1.004,-0.140,-25.267,-34.130,52.519
0.072,0.977,-0.144,-27.229,-32.305,51.885
0.081,0.991,-0.125,-28.656,-30.817,51.183
0.095,0.982,-0.129,-29.382,-27.824,50.031
0.102,0.977,-0.131,-29.313,-23.710,48.504
0.115,0.991,-0.111,-29.107,-19.725,46.290
0.110,0.980,-0.099,-28.221,-16.084,44.046
0.116,0.974,-0.090,-27.382,-13.183,42.420
0.114,0.977,-0.081,-26.580,-12.580,41.420
0.130,0.987,-0.082,-25.855,-12.435,40.740
0.149,0.980,-0.070,-25.359,-11.496,40.000
0.147,0.989,-0.073,-24.626,-9.443,38.351
0.172,0.988,-0.055,-24.336,-7.718,36.290
0.168,0.963,-0.058,-23.901,-7.786,34.122
0.181,0.992,-0.052,-23.122,-6.328,31.748
0.177,0.981,-0.045,-22.282,-5.626,28.954
0.185,0.982,-0.043,-20.893,-4.641,26.450
0.187,0.984,-0.040,-19.206,-2.878,24.092
0.189,0.984,-0.039,-17.206,-0.748,22.153
0.195,0.980,-0.026,-15.412,1.374,20.458
0.201,0.983,-0.031,-13.985,3.420,18.733
0.200,0.985,-0.022,-12.916,5.252,16.427
0.208,0.984,-0.026,-11.985,6.802,14.137
0.208,0.984,-0.015,-11.076,6.916,11.756
0.203,0.977,-0.008,-10.397,5.992,10.000
0.204,0.984,-0.005,-9.847,4.366,8.351
0.204,0.983,-0.005,-9.069,3.122,6.947
0.204,0.990,-0.000,-8.229,2.672,5.443
0.191,0.987,-0.012,-7.023,2.321,4.481
0.191,0.986,-0.007,-5.557,3.198,3.489
0.195,0.986,-0.011,-3.649,5.870,3.130
0.185,0.988,-0.017,-2.107,7.649,2.817
0.190,0.990,-0.013,-1.550,8.099,2.290
0.192,0.991,-0.014,-1.939,7.168,1.542
0.187,0.983,-0.012,-2.237,5.634,1.313
0.187,0.993,-0.019,-2.282,3.893,0.962

-0.879,0.487,-0.500,214.519,-26.595,-250.137
-1.130,0.590,-0.733,204.191,-22.099,-250.137
-1.343,0.727,-0.995,181.817,-3.031,-250.137
-1.522,0.912,-1.187,138.107,12.053,-250.137
-1.651,0.984,-1.277,76.328,19.069,-184.641
-1.678,1.040,-1.281,14.947,24.115,-105.168
-1.683,0.985,-1.196,-35.244,28.153,-35.244
-1.631,0.901,-1.013,-79.863,25.420,32.198
-1.489,0.827,-0.791,-109.725,20.099,84.443
-1.339,0.753,-0.594,-123.519,16.344,121.832
-1.187,0.671,-0.431,-124.870,6.779,153.275
-1.026,0.604,-0.259,-114.710,-7.069,178.786
-0.879,0.593,-0.159,-94.099,-19.565,194.344
-0.752,0.595,-0.096,-72.595,-29.107,199.725
-0.617,0.620,-0.072,-50.130,-34.244,197.206
-0.515,0.660,-0.077,-30.580,-37.168,189.374
-0.418,0.712,-0.099,-16.000,-38.443,177.870
-0.350,0.754,-0.137,-7.198,-37.244,163.855
-0.295,0.790,-0.184,-2.908,-33.053,150.466
-0.259,0.820,-0.202,-1.260,-28.336,137.901
-0.238,0.845,-0.237,-1.534,-24.382,125.458
-0.226,0.866,-0.258,-3.344,-20.153,112.382
-0.201,0.890,-0.271,-6.885,-13.374,99.542
-0.193,0.894,-0.286,-10.275,-6.603,89.878
-0.193,0.870,-0.304,-13.313,-3.595,80.618
-0.189,0.876,-0.286,-13.962,-2.458,73.725
-0.190,0.874,-0.291,-12.939,0.740,67.916
-0.194,0.871,-0.274,-11.198,3.885,62.870
-0.188,0.884,-0.272,-9.779,2.550,59.809
-0.184,0.882,-0.267,-8.916,1.557,57.321
-0.180,0.885,-0.286,-8.229,0.115,54.939
-0.181,0.908,-0.284,-7.672,-2.931,52.702
-0.183,0.910,-0.285,-7.191,-5.191,50.481
-0.185,0.924,-0.282,-7.244,-7.382,48.779
-0.191,0.936,-0.292,-8.038,-9.206,48.008
-0.179,0.946,-0.310,-9.282,-9.435,47.908
-0.183,0.965,-0.313,-12.092,-8.084,48.672
-0.189,0.956,-0.312,-14.687,-6.313,50.328
-0.182,0.964,-0.315,-16.779,-4.038,52.656
-0.182,0.963,-0.309,-18.969,-2.229,54.191
-0.171,0.965,-0.306,-20.527,-0.786,55.550
-0.155,0.959,-0.298,-22.290,0.786,56.672
-0.146,0.961,-0.280,-24.191,2.137,57.313
-0.144,0.961,-0.274,-25.725,-0.038,57.290
-0.130,0.959,-0.252,-27.008,-2.015,57.389
-0.115,0.958,-0.235,-27.603,-3.603,57.473
-0.104,0.963,-0.225,-28.160,-5.725,57.947
-0.100,0.967,-0.227,-28.557,-7.176,57.618
-0.084,0.966,-0.234,-28.809,-8.031,56.863
-0.068,0.964,-0.216,-28.359,-7.351,55.489
-0.062,0.941,-0.216,-27.290,-5.321,53.031
-0.044,0.960,-0.194,-26.588,-3.244,49.794
-0.033,0.973,-0.203,-25.802,-0.076,47.847
-0.037,0.971,-0.205,-24.137,2.962,45.046
-0.031,0.960,-0.182,-23.008,2.275,41.901
-0.016,0.969,-0.181,-22.130,0.672,39.366
0.004,0.974,-0.186,-20.802,1.435,36.679
0.005,0.977,-0.182,-19.053,2.969,34.015
0.013,0.975,-0.165,-17.588,3.534,30.847
0.021,0.982,-0.165,-17.183,2.504,28.061
0.023,0.991,-0.174,-16.412,1.466,25.481
0.024,0.985,-0.167,-15.840,1.466,23.458
0.027,0.993,-0.164,-15.336,1.908,22.023
0.028,1.002,-0.166,-15.107,3.115,20.809
0.028,0.997,-0.162,-14.611,5.107,20.160
0.030,1.000,-0.169,-13.878,7.321,20.405
0.032,1.003,-0.152,-13.107,10.321,20.618
0.025,0.997,-0.152,-12.458,11.626,20.794
0.031,1.003,-0.153,-12.496,11.901,21.366
0.033,0.996,-0.150,-12.893,10.443,21.458
0.032,1.004,-0.149,-13.076,8.939,22.260
0.040,1.000,-0.134,-12.733,8.214,22.962
0.052,0.999,-0.143,-12.099,7.710,22.969
0.050,0.995,-0.131,-11.557,6.298,22.557
0.059,0.996,-0.130,-11.031,3.260,22.122
0.064,0.991,-0.136,-10.893,1.359,21.176
0.069,0.991,-0.141,-10.031,1.191,19.687
0.077,0.994,-0.134,-9.634,1.466,18.405
0.070,0.996,-0.136,-9.519,2.130,16.863
0.071,0.994,-0.134,-9.771,2.573,15.450
0.079,1.002,-0.147,-10.443,2.656,14.504
0.069,0.991,-0.148,-11.267,1.420,14.198
0.073,0.994,-0.147,-11.802,-0.351,14.351
0.084,1.000,-0.137,-12.527,-2.153,14.878
0.085,0.991,-0.146,-13.275,-2.786,14.802
0.088,0.988,-0.139,-13.076,-2.229,14.481
0.093,0.988,-0.137,-12.847,-1.221,13.298
0.089,0.989,-0.142,-12.313,-0.382,11.733
0.095,0.992,-0.136,-11.931,0.893,10.160
0.098,1.000,-0.133,-11.267,4.511,9.061
0.084,0.994,-0.120,-10.466,7.855,8.145
0.084,0.994,-0.120,-10.412,8.527,7.588
0.095,1.021,-0.123,-11.183,8.740,7.656
0.087,1.003,-0.127,-11.664,9.511,7.656
0.085,0.988,-0.112,-12.000,7.733,7.947
0.091,0.999,-0.105,-12.382,4.298,8.359
0.094,1.004,-0.097,-12.618,1.870,8.641
0.096,0.999,-0.108,-12.260,1.809,8.382
0.091,0.999,-0.088,-11.969,1.580,7.901
0.095,1.001,-0.100,-11.550,1.351,7.344
0.098,0.997,-0.096,-10.908,1.191,7.366
0.093,1.000,-0.093,-10.359,2.336,6.962
0.097,1.001,-0.094,-9.840,4.351,6.244
0.094,1.006,-0.096,-9.389,6.160,6.252
0.099,1.003,-0.088,-9.092,7.053,6.443
0.102,0.999,-0.084,-8.740,6.183,6.191
0.095,1.001,-0.075,-9.000,4.565,5.931
0.098,1.001,-0.082,-9.260,2.313,5.427
0.102,1.002,-0.076,-8.840,0.740,4.924
0.103,1.000,-0.076,-8.076,-0.084,4.992
0.113,1.000,-0.078,-7.359,-0.076,4.702
0.109,1.000,-0.086,-6.779,0.595,4.527
0.108,0.993,-0.081,-5.962,2.023,4.015
0.117,0.998,-0.083,-5.412,4.336,3.214
0.113,0.999,-0.086,-5.031,5.802,2.740
0.113,1.001,-0.076,-4.832,6.916,1.985
0.109,0.999,-0.075,-4.679,6.832,1.290
0.108,0.993,-0.075,-4.504,5.802,1.198
0.111,1.000,-0.080,-4.275,4.863,0.771

-0.803,0.583,-0.466,173.603,55.840,-250.137
-1.015,0.648,-0.582,165.687,46.489,-250.137
-1.258,0.701,-0.710,155.893,41.397,-250.137
-1.379,0.772,-0.904,142.626,39.420,-242.969
-1.506,0.865,-0.978,120.107,30.779,-186.802
-1.587,0.900,-1.058,85.374,17.008,-126.611
-1.595,0.962,-1.103,42.550,5.557,-63.053
-1.573,0.952,-1.086,-1.450,-3.313,0.435
-1.525,0.903,-0.997,-38.779,-12.427,57.145
-1.458,0.824,-0.831,-70.855,-26.519,108.969
-1.345,0.765,-0.647,-92.206,-47.626,150.672
-1.203,0.724,-0.500,-99.702,-63.786,181.580
-1.050,0.680,-0.364,-94.153,-78.267,211.695
-0.909,0.657,-0.268,-83.328,-90.405,228.626
-0.768,0.641,-0.225,-67.893,-99.336,235.542
-0.614,0.649,-0.219,-51.855,-101.954,234.595
-0.484,0.655,-0.220,-37.046,-98.855,227.053
-0.398,0.663,-0.244,-25.221,-95.924,215.382
-0.308,0.690,-0.267,-16.794,-93.191,200.794
-0.241,0.703,-0.309,-11.336,-88.160,185.611
-0.181,0.722,-0.348,-7.489,-79.206,168.985
-0.132,0.731,-0.366,-4.641,-66.740,152.023
-0.105,0.742,-0.374,-3.496,-55.557,131.221
-0.095,0.754,-0.377,-3.718,-48.145,112.580
-0.080,0.772,-0.396,-4.748,-40.519,91.840
-0.082,0.804,-0.410,-6.344,-31.824,73.061
-0.089,0.822,-0.411,-8.275,-23.275,58.687
-0.116,0.829,-0.398,-11.603,-16.031,46.725
-0.133,0.851,-0.395,-14.771,-12.420,38.748
-0.141,0.872,-0.389,-18.015,-6.084,32.282
-0.146,0.889,-0.388,-20.611,1.397,27.863
-0.166,0.910,-0.375,-23.725,7.588,23.588
-0.186,0.913,-0.360,-26.931,9.237,21.107
-0.194,0.911,-0.338,-30.115,7.992,20.282
-0.204,0.947,-0.326,-32.580,5.771,20.702
-0.220,0.948,-0.312,-34.649,3.908,22.130
-0.230,0.956,-0.285,-36.191,1.496,24.656
-0.234,0.969,-0.276,-37.366,-1.000,28.244
-0.220,0.983,-0.261,-37.786,-2.115,32.366
-0.213,0.977,-0.238,-37.412,-1.305,36.557
-0.222,0.978,-0.209,-36.656,-2.550,40.519
-0.214,0.979,-0.192,-35.496,-5.855,43.214
-0.200,0.964,-0.200,-33.382,-9.130,44.863
-0.189,0.969,-0.195,-30.878,-10.870,45.840
-0.183,0.975,-0.178,-27.802,-12.489,46.176
-0.172,0.967,-0.165,-24.618,-15.870,46.176
-0.175,0.964,-0.170,-21.244,-19.702,45.130
-0.151,0.960,-0.166,-17.359,-19.779,44.137
-0.133,0.966,-0.167,-13.443,-18.916,42.519
-0.135,0.962,-0.171,-10.366,-18.267,40.344
-0.090,0.971,-0.199,-7.130,-15.855,37.092
-0.102,0.968,-0.173,-4.565,-12.870,33.702
-0.098,0.973,-0.200,-3.031,-9.237,31.382
-0.097,0.963,-0.196,-2.809,-7.687,28.031
-0.079,0.975,-0.204,-2.802,-3.649,24.107
-0.074,0.971,-0.213,-2.450,2.672,19.687
-0.077,0.982,-0.201,-2.603,8.954,15.229
-0.078,0.979,-0.197,-3.351,10.824,12.466
-0.075,0.978,-0.199,-3.832,13.908,9.740
-0.065,0.992,-0.218,-3.672,19.656,7.076
-0.083,0.989,-0.193,-4.168,21.282,5.107
-0.092,0.984,-0.185,-5.031,18.069,3.351
-0.088,0.993,-0.180,-5.450,15.229,3.076
-0.088,1.000,-0.184,-5.137,15.450,3.427
-0.099,0.996,-0.191,-4.664,15.885,4.237
-0.111,1.000,-0.179,-4.802,14.191,5.771
-0.112,0.999,-0.177,-4.687,10.916,7.489
-0.111,1.004,-0.184,-4.496,8.542,9.664
-0.103,1.003,-0.185,-4.046,6.863,11.641
-0.108,0.996,-0.195,-4.313,4.649,13.084
-0.104,1.000,-0.190,-5.069,1.489,14.908
-0.108,0.995,-0.203,-5.916,-0.695,16.557
-0.099,0.997,-0.197,-6.382,-0.863,18.260
-0.095,1.000,-0.202,-7.641,-0.038,19.656
-0.090,0.998,-0.207,-8.924,1.130,20.565
-0.093,0.994,-0.208,-10.206,0.191,21.588
-0.092,0.990,-0.206,-10.802,-1.252,22.275
-0.082,0.983,-0.201,-10.641,-1.916,23.244
-0.073,0.980,-0.202,-10.397,-1.763,23.611
-0.073,0.984,-0.195,-10.565,-2.031,23.618
-0.073,0.977,-0.196,-11.336,-2.794,23.878
-0.066,0.980,-0.199,-11.969,-2.656,24.191
-0.047,0.979,-0.205,-12.603,0.260,24.847
-0.029,0.982,-0.220,-12.748,5.779,24.916
-0.017,0.984,-0.236,-13.397,12.649,23.809
-0.020,0.969,-0.225,-14.565,20.061,21.107
-0.028,0.968,-0.219,-15.710,25.053,17.481
-0.025,0.966,-0.220,-16.359,28.466,14.527
-0.021,0.981,-0.212,-17.618,31.588,12.626
-0.033,0.989,-0.206,-19.580,32.565,12.160
-0.033,0.999,-0.179,-22.427,31.290,12.031
-0.041,1.005,-0.162,-25.527,27.221,12.702
-0.037,1.003,-0.148,-27.794,21.450,14.160
-0.036,1.011,-0.141,-29.412,16.008,16.405
-0.032,1.003,-0.131,-30.504,12.336,18.710
-0.024,1.003,-0.112,-30.374,9.527,20.573
-0.006,0.999,-0.107,-29.313,9.634,21.580
0.001,0.989,-0.103,-27.847,9.786,21.145
0.009,0.987,-0.095,-26.366,9.893,19.344
0.019,1.001,-0.084,-25.366,11.374,17.214
0.011,0.997,-0.078,-23.443,13.878,14.786
0.016,1.002,-0.074,-21.656,14.611,12.954
0.021,1.009,-0.061,-20.176,15.473,11.290
0.024,1.014,-0.053,-18.924,14.672,10.374
0.023,1.012,-0.053,-17.450,12.763,9.756
0.027,1.015,-0.038,-15.313,10.695,9.840
0.031,1.010,-0.031,-13.000,8.916,9.656
0.039,1.003,-0.032,-10.557,7.443,8.931
0.031,1.004,-0.043,-7.748,5.542,8.176
0.035,1.001,-0.051,-4.969,3.221,7.771
0.033,1.000,-0.051,-2.511,1.489,6.855
0.041,0.997,-0.054,-0.702,1.031,6.176
0.041,1.003,-0.070,0.824,2.298,4.985
0.031,0.998,-0.063,2.183,3.672,3.786
0.035,1.007,-0.074,3.504,4.916,2.924
0.042,1.002,-0.083,4.519,5.496,2.366
0.030,1.001,-0.089,4.435,4.702,1.641
0.036,1.001,-0.095,4.099,2.695,1.115
0.041,1.003,-0.097,3.534,1.000,0.885

-0.925,0.528,-0.433,201.351,-17.779,-250.137
-1.175,0.586,-0.625,191.008,-29.229,-250.137
-1.383,0.684,-0.837,177.527,-21.924,-250.137
-1.536,0.800,-1.030,155.206,-6.618,-250.137
-1.673,0.949,-1.099,121.290,-5.458,-186.458
-1.777,0.934,-1.157,78.679,-12.397,-112.588
-1.787,0.960,-1.208,26.931,-18.809,-29.298
-1.751,0.895,-1.133,-16.550,-21.405,40.237
-1.690,0.792,-0.974,-51.214,-33.573,97.382
-1.563,0.695,-0.782,-78.267,-53.779,147.092
-1.414,0.603,-0.648,-90.557,-71.412,182.618
-1.241,0.561,-0.517,-92.908,-85.206,211.924
-1.072,0.527,-0.420,-87.458,-94.771,229.939
-0.904,0.520,-0.369,-76.809,-96.389,236.595
-0.756,0.516,-0.320,-63.458,-92.466,234.221
-0.630,0.525,-0.292,-50.626,-88.359,224.992
-0.502,0.579,-0.280,-39.359,-81.344,211.321
-0.381,0.637,-0.309,-30.824,-66.969,195.519
-0.311,0.667,-0.318,-25.466,-52.580,179.748
-0.256,0.720,-0.307,-23.809,-44.802,164.435
-0.221,0.772,-0.281,-25.435,-44.840,148.221
-0.188,0.815,-0.303,-28.855,-45.397,133.985
-0.166,0.859,-0.306,-33.450,-43.649,122.901
-0.152,0.862,-0.306,-37.237,-41.656,115.466
-0.130,0.895,-0.297,-40.443,-38.985,109.863
-0.131,0.911,-0.277,-42.779,-35.389,106.053
-0.133,0.899,-0.265,-43.870,-33.466,102.672
-0.113,0.899,-0.255,-43.275,-31.542,99.634
-0.106,0.908,-0.235,-41.611,-29.550,96.427
-0.105,0.903,-0.204,-39.748,-29.000,92.275
-0.094,0.927,-0.203,-37.565,-29.366,88.099
-0.090,0.926,-0.178,-35.458,-30.260,84.229
-0.085,0.930,-0.165,-31.779,-32.534,78.733
-0.097,0.932,-0.163,-27.244,-34.214,73.397
-0.085,0.932,-0.155,-21.962,-36.168,69.366
-0.086,0.938,-0.178,-17.008,-36.115,66.221
-0.084,0.947,-0.173,-12.046,-33.183,63.244
-0.082,0.941,-0.178,-8.191,-29.573,60.412
-0.081,0.954,-0.174,-6.137,-27.008,58.229
-0.081,0.951,-0.182,-5.046,-24.695,55.939
-0.086,0.960,-0.187,-4.351,-22.893,53.519
-0.065,0.975,-0.184,-4.580,-22.427,51.573
-0.063,0.974,-0.194,-4.817,-21.130,49.809
-0.059,0.979,-0.190,-5.496,-19.031,47.237
-0.054,0.982,-0.191,-6.168,-17.298,44.802
-0.044,0.970,-0.198,-6.313,-14.710,42.183
-0.041,0.961,-0.244,-6.115,-10.260,38.168
-0.034,0.990,-0.199,-6.595,-7.702,35.916
-0.034,0.989,-0.194,-6.740,-2.153,33.282
-0.026,0.967,-0.186,-7.687,-2.015,29.038
-0.016,0.977,-0.182,-8.550,-1.137,24.756
-0.009,0.984,-0.185,-8.718,2.710,21.122
-0.005,0.993,-0.184,-8.679,5.878,18.870
-0.015,0.983,-0.171,-8.626,6.412,16.061
-0.007,0.990,-0.166,-8.794,5.473,14.008
-0.016,0.989,-0.160,-8.519,6.542,12.557
-0.012,0.989,-0.162,-7.992,8.565,11.282
-0.008,0.990,-0.153,-7.573,10.679,10.206
-0.010,0.999,-0.157,-7.336,12.282,9.840
-0.013,1.000,-0.151,-7.038,13.244,9.511
-0.012,0.996,-0.146,-6.870,12.618,9.855
-0.010,1.008,-0.132,-6.771,10.672,11.221
-0.017,1.009,-0.141,-6.588,7.924,12.756
-0.019,1.004,-0.134,-6.137,5.542,14.649
-0.010,1.004,-0.131,-5.573,3.504,15.931
-0.002,0.992,-0.142,-4.649,2.885,17.145
0.008,0.997,-0.136,-3.962,2.832,17.977
0.012,0.990,-0.152,-3.206,3.084,18.206
0.016,0.995,-0.144,-2.893,2.695,17.473
0.022,0.994,-0.138,-3.099,1.511,16.840
0.033,0.993,-0.155,-3.290,0.015,16.672
0.036,0.993,-0.156,-3.695,-0.748,16.504
0.040,0.994,-0.158,-3.695,-0.336,16.038
0.039,0.993,-0.157,-4.473,-0.359,14.885
0.043,0.991,-0.152,-5.351,-0.634,13.382
0.043,0.983,-0.157,-6.122,-0.107,11.542
0.040,0.992,-0.161,-6.649,0.427,10.405
0.037,0.994,-0.153,-7.336,0.244,10.206
0.031,0.997,-0.152,-7.885,-1.191,10.130
0.037,0.991,-0.152,-8.580,-3.420,10.626
0.040,1.004,-0.142,-9.328,-6.397,11.901
0.040,1.003,-0.149,-10.763,-9.519,12.763
0.032,1.008,-0.129,-12.359,-11.313,13.542
0.034,1.001,-0.129,-13.511,-12.870,14.656
0.041,1.009,-0.129,-14.725,-12.412,15.840
0.036,1.017,-0.128,-14.962,-10.649,17.061
0.044,1.017,-0.118,-14.847,-8.420,18.229
0.042,1.012,-0.118,-14.038,-6.443,19.008
0.055,1.013,-0.107,-13.061,-4.641,19.603
0.071,1.004,-0.083,-12.153,-2.656,19.382
0.070,1.006,-0.084,-11.206,-2.244,18.443
0.082,1.020,-0.096,-9.153,-2.519,17.038
0.081,0.980,-0.080,-7.786,-2.557,15.321
0.083,1.001,-0.084,-5.855,-6.000,13.695
0.077,0.987,-0.087,-4.290,-8.725,12.084
0.085,0.995,-0.097,-2.588,-9.702,10.542
0.078,0.993,-0.109,-1.183,-9.359,9.359
0.082,0.990,-0.114,0.122,-7.901,7.748
0.091,0.996,-0.124,0.878,-5.481,6.740
0.088,0.995,-0.129,1.641,-1.191,5.046
0.093,1.002,-0.133,1.847,2.481,3.115
0.083,1.001,-0.119,1.435,4.718,1.214
0.078,1.005,-0.114,0.672,5.733,-0.450
0.081,1.002,-0.114,-0.229,4.969,-1.626
0.079,1.001,-0.117,-0.519,4.534,-2.420
0.071,1.008,-0.124,-0.901,4.412,-2.435
0.066,0.998,-0.117,-1.015,3.855,-1.366
0.061,0.998,-0.115,-1.069,3.198,-0.473
0.059,1.001,-0.116,-1.206,2.206,0.351
0.062,1.003,-0.123,-1.305,1.756,1.450
0.075,1.001,-0.115,-1.351,1.427,2.153
0.067,0.986,-0.127,-1.099,1.252,2.740
0.079,0.990,-0.130,-1.191,1.809,3.031
0.088,1.000,-0.124,-1.450,3.061,2.748
0.088,0.998,-0.123,-1.824,4.397,2.015
0.080,0.998,-0.124,-2.634,4.275,1.580
0.087,1.002,-0.124,-3.160,3.084,1.321
0.086,1.000,-0.121,-3.321,2.252,1.008
0.083,1.000,-0.112,-3.267,2.534,0.458

-0.780,0.377,-0.669,234.870,-34.107,-250.137
-1.094,0.442,-0.917,219.015,-34.344,-250.137
-1.355,0.566,-1.114,195.321,-18.870,-250.137
-1.591,0.712,-1.334,154.817,0.244,-250.137
-1.740,0.808,-1.434,104.206,2.405,-218.481
-1.827,0.860,-1.514,45.252,0.992,-143.511
-1.851,0.870,-1.451,-14.237,3.733,-66.328
-1.846,0.821,-1.328,-65.321,1.229,6.885
-1.742,0.732,-1.069,-107.191,-6.107,76.924
-1.603,0.630,-0.818,-131.557,-20.198,133.763
-1.422,0.557,-0.596,-138.802,-36.832,177.863
-1.240,0.513,-0.413,-131.878,-54.122,211.160
-1.070,0.489,-0.300,-115.366,-66.214,231.664
-0.899,0.501,-0.227,-93.214,-69.878,239.420
-0.757,0.516,-0.191,-74.710,-70.901,237.992
-0.635,0.549,-0.180,-57.321,-74.092,230.771
-0.526,0.592,-0.193,-42.634,-75.740,219.924
-0.456,0.623,-0.204,-31.000,-78.664,206.977
-0.386,0.669,-0.238,-22.763,-79.473,193.695
-0.308,0.732,-0.268,-17.725,-75.458,181.351
-0.250,0.781,-0.321,-13.893,-61.916,169.084
-0.223,0.791,-0.331,-12.160,-49.389,156.931
-0.187,0.816,-0.349,-11.962,-42.405,144.115
-0.156,0.839,-0.350,-12.992,-34.534,130.038
-0.149,0.819,-0.357,-14.847,-31.176,116.893
-0.142,0.823,-0.358,-16.267,-27.817,105.435
-0.136,0.824,-0.366,-16.718,-23.305,93.870
-0.127,0.829,-0.365,-16.328,-18.107,84.756
-0.122,0.838,-0.372,-16.107,-13.443,77.366
-0.124,0.849,-0.366,-15.985,-9.435,70.359
-0.117,0.861,-0.363,-16.023,-6.618,64.290
-0.120,0.874,-0.352,-16.366,-6.817,59.763
-0.121,0.891,-0.361,-17.176,-8.084,55.504
-0.124,0.901,-0.353,-18.092,-7.733,52.084
-0.130,0.909,-0.359,-19.000,-6.580,49.939
-0.130,0.930,-0.354,-20.550,-5.580,48.695
-0.136,0.928,-0.337,-22.527,-5.092,48.137
-0.146,0.942,-0.330,-24.580,-5.573,48.672
-0.132,0.945,-0.334,-26.817,-4.855,50.000
-0.139,0.952,-0.323,-28.458,-4.954,51.595
-0.128,0.975,-0.311,-30.542,-5.588,53.137
-0.123,0.961,-0.300,-32.412,-4.924,53.863
-0.123,0.953,-0.286,-33.092,-4.153,54.015
-0.101,0.968,-0.270,-33.420,-3.557,54.382
-0.096,0.965,-0.251,-33.275,-3.237,54.374
-0.093,0.958,-0.240,-32.863,-4.160,54.267
-0.102,0.988,-0.211,-32.679,-5.527,53.756
-0.066,0.979,-0.243,-32.664,-6.855,52.939
-0.079,0.969,-0.223,-31.412,-4.069,51.939
-0.066,0.963,-0.199,-31.107,-7.435,48.588
-0.056,0.973,-0.211,-29.618,-9.229,46.374
-0.043,0.974,-0.206,-27.748,-7.282,44.237
-0.043,0.984,-0.211,-26.160,-4.099,42.595
-0.043,0.981,-0.204,-24.702,-2.244,40.481
-0.028,0.990,-0.186,-23.374,-2.015,38.603
-0.027,0.985,-0.191,-22.481,-1.962,36.908
-0.013,0.991,-0.190,-21.603,-2.092,35.954
-0.011,0.992,-0.182,-20.641,-0.626,35.061
-0.019,0.992,-0.178,-19.962,0.366,34.809
-0.016,0.993,-0.179,-19.107,1.107,35.221
0.003,0.988,-0.180,-18.023,0.786,36.687
0.014,0.991,-0.168,-16.878,1.046,38.328
0.028,0.996,-0.176,-16.412,1.099,38.878
0.045,1.000,-0.170,-16.130,0.748,38.763
0.052,0.992,-0.167,-15.992,0.740,38.481
0.056,0.992,-0.166,-16.099,-0.565,38.267
0.069,0.994,-0.170,-16.374,-2.351,37.786
0.073,0.988,-0.175,-16.313,-3.221,36.748
0.087,0.986,-0.164,-16.290,-4.618,35.634
0.087,0.990,-0.159,-16.405,-6.336,34.733
0.095,0.988,-0.164,-16.359,-6.809,33.878
0.110,0.988,-0.157,-16.221,-6.244,32.794
0.111,0.988,-0.156,-16.015,-4.481,30.466
0.115,0.982,-0.166,-15.916,-2.695,28.565
0.119,0.974,-0.155,-15.901,-1.924,27.000
0.119,0.980,-0.159,-15.656,-2.649,25.832
0.136,0.987,-0.156,-15.397,-1.252,24.733
0.141,0.984,-0.153,-15.618,-0.046,23.718
0.144,0.986,-0.147,-16.023,0.000,22.183
0.118,0.972,-0.138,-18.053,-2.573,21.504
0.159,1.019,-0.150,-18.687,-0.130,20.580
0.146,0.963,-0.140,-18.695,3.847,18.191
0.154,0.995,-0.123,-18.550,3.947,15.359
0.151,0.984,-0.123,-18.107,4.107,13.084
0.149,0.977,-0.123,-17.046,5.099,11.046
0.151,0.990,-0.125,-15.992,6.443,9.802
0.148,0.985,-0.103,-14.618,5.847,8.565
0.139,0.981,-0.117,-13.519,4.786,7.511
0.144,0.979,-0.109,-11.847,4.412,6.527
0.133,0.992,-0.106,-10.748,3.450,6.031
0.146,0.989,-0.116,-9.649,3.252,5.710
0.140,0.989,-0.100,-8.870,2.557,4.840
0.138,0.989,-0.102,-7.878,1.756,3.863
0.135,0.989,-0.098,-6.840,1.992,3.275
0.138,0.996,-0.102,-5.947,2.847,2.435
0.132,0.999,-0.098,-5.504,3.756,2.374
0.136,0.996,-0.091,-5.260,3.977,2.565
0.141,1.007,-0.096,-5.229,4.397,2.733
0.133,0.998,-0.093,-5.603,3.878,2.992
0.137,1.006,-0.099,-5.641,3.313,2.710
0.132,1.007,-0.090,-5.992,3.008,2.290
0.128,1.000,-0.087,-6.092,2.557,2.305
0.132,0.996,-0.093,-6.069,2.443,2.305
0.126,1.004,-0.090,-5.977,3.160,2.031
0.134,0.997,-0.093,-5.763,3.313,1.687
0.130,0.999,-0.094,-5.328,3.252,1.351
0.129,0.995,-0.092,-4.878,3.947,1.046
0.130,0.997,-0.087,-4.183,4.687,0.359
0.131,0.994,-0.097,-3.870,4.634,-0.466
0.130,0.994,-0.090,-3.885,4.092,-0.718
0.125,0.995,-0.098,-3.824,4.061,-0.908
0.122,1.001,-0.091,-3.954,4.267,-1.237
0.124,1.004,-0.096,-4.382,4.611,-1.038
0.126,0.999,-0.089,-4.580,5.573,-0.771
0.113,1.003,-0.093,-4.115,6.198,-0.206
0.126,1.004,-0.096,-4.275,5.962,0.504
0.119,0.982,-0.088,-4.725,7.534,1.038
0.120,1.009,-0.080,-4.985,6.435,1.244
0.124,1.000,-0.079,-5.252,5.969,1.221

0.764,0.942,-0.124,15.099,178.389,-32.527
0.919,0.939,-0.052,18.366,224.214,-56.290
0.990,0.764,0.038,23.634,245.496,-91.992
1.004,0.594,0.146,32.969,232.992,-147.817
0.987,0.491,0.270,44.191,197.420,-217.809
0.886,0.332,0.366,61.893,145.840,-250.137
0.721,0.157,0.386,97.084,96.481,-250.137
0.516,0.095,0.341,140.954,73.901,-250.137
0.230,0.085,0.256,194.069,72.679,-250.137
-0.042,0.107,0.172,236.786,77.550,-250.137
-0.389,0.174,0.107,250.130,70.878,-250.137
-0.701,0.270,-0.053,250.130,44.656,-250.137
-1.008,0.367,-0.231,250.130,9.298,-250.137
-1.284,0.477,-0.475,250.130,-28.069,-250.137
-1.530,0.548,-0.801,250.130,-46.183,-250.137
-1.604,0.770,-1.118,250.130,-37.756,-250.137
-1.776,0.870,-1.308,207.214,-16.053,-241.580
-1.836,1.067,-1.455,144.069,4.817,-144.985
-1.926,1.052,-1.456,65.985,12.527,-45.290
-1.885,0.955,-1.342,-14.115,-6.992,40.565
-1.713,0.818,-1.164,-78.244,-23.557,101.656
-1.521,0.684,-0.962,-115.336,-29.000,143.260
-1.291,0.551,-0.688,-134.969,-34.168,177.855
-1.127,0.493,-0.507,-137.725,-40.878,197.489
-0.967,0.455,-0.335,-130.947,-50.916,209.573
-0.823,0.443,-0.227,-116.954,-58.748,211.916
-0.691,0.459,-0.155,-96.153,-65.901,205.420
-0.594,0.487,-0.115,-75.679,-69.687,194.061
-0.522,0.532,-0.113,-56.641,-73.282,179.916
-0.469,0.582,-0.127,-38.252,-74.214,163.710
-0.417,0.633,-0.158,-24.718,-71.641,149.374
-0.360,0.716,-0.201,-14.504,-61.130,135.664
-0.343,0.754,-0.232,-6.962,-44.733,120.802
-0.342,0.812,-0.248,-3.282,-32.160,106.748
-0.331,0.852,-0.283,-3.656,-20.695,93.786
-0.325,0.872,-0.294,-5.748,-9.145,82.748
-0.340,0.892,-0.305,-8.885,1.015,75.282
-0.344,0.877,-0.315,-11.840,9.099,70.397
-0.353,0.868,-0.305,-14.977,13.603,66.595
-0.351,0.876,-0.305,-17.366,14.473,65.336
-0.349,0.880,-0.289,-19.397,14.618,65.298
-0.355,0.878,-0.286,-20.649,12.969,66.565
-0.364,0.876,-0.268,-21.656,7.672,69.557
-0.352,0.896,-0.275,-21.947,1.427,73.847
-0.347,0.898,-0.276,-22.267,-4.580,79.740
-0.333,0.909,-0.260,-22.771,-9.672,84.534
-0.323,0.919,-0.257,-23.344,-15.214,89.756
-0.302,0.914,-0.260,-23.931,-19.550,94.344
-0.294,0.923,-0.266,-24.824,-23.153,98.756
-0.278,0.922,-0.260,-25.985,-25.786,102.282
-0.263,0.922,-0.265,-26.550,-27.084,104.786
-0.241,0.934,-0.260,-27.405,-26.748,106.908
-0.224,0.932,-0.254,-28.374,-26.099,108.145
-0.211,0.936,-0.239,-29.817,-26.405,109.015
-0.191,0.926,-0.244,-31.115,-27.244,109.733
-0.159,0.933,-0.243,-31.939,-26.924,110.450
-0.129,0.929,-0.245,-32.305,-23.450,110.298
-0.106,0.936,-0.232,-33.817,-20.779,109.672
-0.081,0.935,-0.215,-35.893,-21.038,108.771
-0.061,0.948,-0.205,-38.389,-22.122,107.328
-0.038,0.946,-0.189,-40.534,-23.099,105.015
0.019,0.991,-0.169,-42.160,-23.198,102.107
0.012,0.949,-0.198,-43.794,-24.305,98.115
0.020,0.957,-0.183,-44.176,-17.397,95.183
0.018,0.957,-0.177,-44.969,-13.107,90.802
0.040,0.961,-0.150,-46.290,-12.565,85.160
0.057,0.955,-0.139,-46.763,-9.214,80.168
0.052,0.968,-0.138,-46.756,-4.771,77.221
0.083,0.975,-0.125,-46.176,-0.122,75.840
0.090,0.963,-0.121,-46.130,3.916,75.107
0.104,0.988,-0.091,-45.840,4.244,75.191
0.124,0.985,-0.084,-45.656,5.527,74.840
0.143,0.984,-0.062,-45.466,5.916,73.763
0.147,0.969,-0.026,-44.924,4.550,71.786
0.163,0.960,-0.042,-44.115,-0.511,69.931
0.182,0.973,-0.040,-43.550,-5.321,68.748
0.209,0.982,-0.037,-41.252,-6.038,67.885
0.226,0.951,-0.020,-38.198,-2.802,65.099
0.236,0.956,-0.011,-35.595,-3.985,62.695
0.245,0.952,-0.008,-32.840,-5.153,60.183
0.249,0.922,0.003,-30.359,-5.458,57.977
0.290,0.993,0.002,-28.275,-2.588,55.061
0.285,0.945,0.014,-25.893,-0.794,52.198
0.307,0.959,0.018,-23.748,-1.252,49.069
0.326,0.957,0.021,-21.939,-1.351,45.412
0.330,0.948,0.015,-19.603,0.137,41.267
0.348,0.947,0.027,-17.298,1.977,36.527
0.350,0.949,0.032,-15.008,2.122,31.542
0.346,0.941,0.031,-13.679,0.672,26.344
0.350,0.948,0.045,-12.137,-1.504,20.992
0.366,0.941,0.032,-10.420,-1.809,15.771
0.369,0.944,0.033,-8.069,1.076,10.603
0.371,0.951,0.045,-5.672,3.809,5.405
0.354,0.951,0.042,-3.733,5.214,1.237
0.356,0.949,0.037,-2.130,6.183,-2.542
0.338,0.955,0.028,-0.550,7.328,-5.756
0.325,0.952,0.041,0.427,7.855,-8.405
0.319,0.966,0.032,1.298,8.481,-9.878
0.300,0.962,0.026,2.069,8.099,-11.038
0.285,0.970,0.021,2.466,6.634,-11.267
0.271,0.971,0.016,2.351,5.015,-10.947
0.265,0.966,0.013,2.351,4.344,-10.252
0.257,0.977,0.002,2.221,3.786,-9.290
0.252,0.969,-0.006,2.595,3.244,-7.687
0.247,0.970,-0.009,2.771,1.855,-6.206
0.245,0.966,-0.003,2.817,0.260,-4.725
0.246,0.969,-0.012,2.588,-0.618,-4.137
0.250,0.968,-0.012,2.656,-0.191,-3.954
0.240,0.963,-0.016,2.809,0.969,-3.870
0.246,0.964,-0.028,2.672,1.603,-4.031
0.243,0.969,-0.025,1.992,2.290,-4.611
0.243,0.969,-0.028,0.924,2.962,-5.473
0.237,0.973,-0.031,-0.534,3.939,-6.901
0.233,0.973,-0.026,-2.275,5.176,-7.382
0.228,0.976,-0.024,-3.794,5.603,-7.412
0.221,0.984,-0.019,-5.374,6.046,-6.931
0.217,0.982,-0.015,-6.557,7.221,-6.504
0.217,0.981,-0.003,-7.267,7.985,-5.763
0.216,0.991,-0.000,-7.366,8.328,-4.878

0.833,0.879,0.104,27.473,104.214,-49.901
0.965,0.850,0.154,34.641,102.053,-74.115
0.942,0.757,0.247,39.672,85.221,-110.947
1.061,0.575,0.235,47.481,49.565,-159.435
1.030,0.417,0.227,55.740,13.603,-224.160
0.989,0.195,0.164,69.038,-4.794,-250.137
0.916,0.077,0.053,86.519,8.382,-250.137
0.720,-0.030,-0.060,107.160,47.740,-250.137
0.408,-0.071,-0.110,127.023,81.672,-250.137
-0.025,-0.078,-0.149,137.901,80.221,-250.137
-0.375,0.020,-0.217,135.206,55.863,-250.137
-0.758,0.133,-0.319,123.244,30.511,-250.137
-1.127,0.341,-0.428,103.008,8.817,-250.137
-1.527,0.507,-0.563,79.847,2.786,-250.137
-1.827,0.757,-0.697,54.481,4.183,-250.137
-2.000,0.998,-0.857,24.237,16.809,-250.137
-2.000,1.173,-0.851,-12.153,18.885,-222.237
-2.000,1.200,-0.781,-45.489,12.061,-113.107
-2.000,1.139,-0.613,-75.611,3.672,-5.168
-2.000,0.983,-0.427,-94.519,-10.420,70.550
-1.921,0.844,-0.233,-99.412,-23.076,134.725
-1.653,0.701,-0.054,-93.405,-38.939,185.641
-1.384,0.644,0.087,-78.321,-59.160,219.336
-1.185,0.575,0.165,-60.817,-70.733,233.985
-1.006,0.558,0.207,-40.672,-76.069,236.099
-0.862,0.551,0.205,-19.344,-73.771,229.763
-0.748,0.562,0.190,0.573,-68.389,219.450
-0.622,0.577,0.149,18.725,-62.191,207.176
-0.511,0.626,0.089,29.870,-57.733,196.519
-0.422,0.692,0.031,32.649,-54.855,186.405
-0.367,0.745,-0.028,27.954,-58.206,175.649
-0.326,0.766,-0.083,20.473,-63.817,166.771
-0.241,0.854,-0.128,12.634,-61.366,159.176
-0.213,0.858,-0.172,6.137,-48.305,150.374
-0.198,0.841,-0.158,1.046,-37.916,141.107
-0.177,0.835,-0.143,-2.573,-32.336,132.214
-0.162,0.844,-0.146,-5.511,-26.740,121.718
-0.148,0.845,-0.138,-7.466,-22.481,112.122
-0.121,0.862,-0.135,-8.076,-13.466,102.244
-0.115,0.874,-0.116,-8.397,-3.069,94.176
-0.115,0.895,-0.091,-9.099,4.420,86.977
-0.121,0.899,-0.080,-10.153,6.206,82.130
-0.108,0.917,-0.067,-11.809,4.252,78.962
-0.108,0.927,-0.069,-13.840,-0.084,76.366
-0.111,0.938,-0.069,-15.916,-7.389,74.321
-0.110,0.958,-0.068,-18.366,-14.519,72.603
-0.096,0.976,-0.075,-19.573,-18.145,72.931
-0.091,0.973,-0.083,-19.290,-18.527,73.702
-0.083,0.968,-0.071,-18.809,-18.168,75.084
-0.078,0.962,-0.061,-19.015,-18.328,76.313
-0.065,0.962,-0.057,-18.962,-17.939,77.092
-0.049,0.975,-0.049,-18.901,-15.183,77.435
-0.049,0.965,-0.026,-18.924,-14.076,78.588
-0.028,0.965,-0.014,-18.947,-14.702,79.099
-0.011,0.971,-0.002,-18.115,-17.420,78.901
0.014,0.978,-0.023,-17.267,-20.855,77.962
0.021,0.984,-0.004,-16.198,-24.069,76.198
0.038,0.970,0.001,-14.282,-24.763,73.702
0.048,0.952,-0.001,-11.473,-24.046,70.458
0.057,0.934,0.010,-8.198,-22.221,66.405
0.048,0.936,0.028,-5.962,-20.160,61.550
0.076,0.982,-0.014,-3.786,-15.031,58.321
0.077,0.975,0.000,-2.160,-5.863,54.565
0.085,0.989,0.001,-2.489,-2.817,49.695
0.095,0.982,-0.009,-4.214,-0.160,44.534
0.102,0.988,-0.017,-6.008,3.435,40.168
0.112,0.993,-0.009,-7.420,7.145,36.908
0.103,0.987,-0.024,-9.443,9.985,35.206
0.102,0.982,-0.023,-10.153,11.626,34.382
0.108,0.972,-0.015,-9.878,13.092,34.053
0.116,0.978,-0.000,-9.107,14.214,34.168
0.119,0.974,0.000,-8.557,13.832,34.466
0.126,0.980,0.012,-8.282,12.168,35.290
0.134,0.986,0.020,-8.611,10.397,35.626
0.145,0.984,0.020,-8.832,8.107,36.328
0.161,0.989,0.021,-9.229,7.107,36.000
0.167,0.973,0.025,-9.473,4.351,35.626
0.186,0.976,0.033,-9.496,1.496,34.878
0.190,0.964,0.017,-9.435,1.359,34.359
0.215,0.977,0.014,-9.038,3.817,33.550
0.219,0.967,0.024,-8.573,6.779,32.298
0.219,0.965,0.025,-8.145,9.023,30.023
0.230,0.979,0.035,-8.198,10.313,28.198
0.232,0.970,0.046,-8.160,10.191,25.908
0.241,0.970,0.037,-7.725,9.351,22.832
0.247,0.967,0.044,-7.557,8.489,19.664
0.248,0.970,0.044,-6.748,7.977,16.282
0.246,0.965,0.050,-5.809,8.863,12.962
0.248,0.964,0.046,-4.924,8.794,10.313
0.245,0.964,0.053,-4.504,9.557,7.275
0.243,0.972,0.048,-3.832,9.901,5.359
0.248,0.973,0.044,-2.275,10.802,4.099
0.239,0.973,0.057,-1.008,11.069,3.008
0.226,0.969,0.058,-0.198,10.809,1.595
0.221,0.974,0.055,0.321,9.947,0.344
0.224,0.972,0.054,0.847,8.321,-0.244
0.211,0.972,0.050,1.420,6.977,-0.382
0.207,0.972,0.043,1.282,5.405,-0.405
0.202,0.985,0.047,0.702,4.122,-0.099
0.204,0.986,0.047,0.336,3.275,0.427
0.202,0.985,0.031,-0.229,3.550,0.916
0.199,0.982,0.033,-0.924,3.763,1.023
0.199,0.978,0.033,-1.145,3.786,0.695
0.194,0.965,0.023,-0.908,5.069,0.649
0.203,0.971,0.027,-0.382,6.321,0.038
0.193,0.979,0.027,-0.481,6.626,-0.389
0.186,0.975,0.032,-0.992,5.893,-0.618
0.190,0.980,0.034,-1.588,4.733,-0.863
0.186,0.982,0.040,-2.168,4.046,-1.214
0.199,0.979,0.037,-2.374,3.969,-1.275
0.183,0.985,0.036,-2.710,4.496,-1.603
0.185,0.977,0.039,-3.115,4.840,-2.099
0.186,0.978,0.032,-2.771,4.397,-1.794
0.179,0.980,0.025,-2.305,4.916,-1.443
0.177,0.980,0.039,-2.466,5.305,-1.412
0.178,0.987,0.044,-3.061,4.809,-1.351
0.175,0.988,0.043,-3.649,4.542,-1.573
0.185,0.984,0.034,-3.992,4.725,-1.649
0.179,0.984,0.047,-4.206,5.763,-2.031

0.824,0.855,0.175,38.870,-3.519,-44.092
0.967,0.812,0.180,40.954,-19.481,-66.763
1.093,0.767,0.158,42.672,-26.221,-98.053
1.092,0.597,0.142,42.229,-27.260,-148.473
1.057,0.500,0.100,42.344,-20.397,-210.580
0.996,0.385,0.068,45.496,1.427,-250.137
0.877,0.322,0.075,52.435,30.817,-250.137
0.698,0.270,0.065,64.061,61.130,-250.137
0.486,0.233,0.062,79.160,87.061,-250.137
0.194,0.241,0.096,95.519,100.916,-250.137
-0.125,0.228,0.116,110.107,87.931,-250.137
-0.373,0.289,0.100,121.351,55.191,-250.137
-0.625,0.317,0.041,128.534,12.618,-250.137
-0.916,0.382,-0.121,128.908,-23.725,-250.137
-1.205,0.532,-0.257,120.267,-40.611,-250.137
-1.450,0.696,-0.432,102.466,-42.542,-250.137
-1.720,0.842,-0.593,79.527,-32.748,-250.137
-1.863,0.953,-0.692,54.771,-19.595,-250.137
-1.958,0.995,-0.721,24.947,-14.534,-185.504
-1.967,0.985,-0.695,-6.702,-16.916,-108.687
-1.937,0.930,-0.623,-34.374,-13.504,-28.183
-1.873,0.827,-0.494,-50.069,-8.298,32.870
-1.760,0.720,-0.348,-57.885,-9.305,79.221
-1.596,0.649,-0.239,-58.313,-8.191,114.389
-1.405,0.589,-0.116,-51.824,-10.374,145.718
-1.229,0.553,-0.028,-41.832,-19.824,168.344
-1.069,0.548,0.025,-30.595,-28.893,180.290
-0.946,0.571,0.039,-21.374,-32.176,183.359
-0.811,0.600,0.043,-11.397,-27.496,181.221
-0.731,0.625,0.037,-4.382,-22.092,175.389
-0.657,0.674,0.027,-1.344,-22.145,168.901
-0.575,0.719,-0.007,0.252,-19.153,163.290
-0.511,0.770,-0.038,1.832,-4.214,156.176
-0.464,0.790,-0.045,1.122,6.710,149.473
-0.447,0.809,-0.049,-0.672,11.748,143.275
-0.404,0.850,-0.041,-3.282,15.878,135.786
-0.382,0.871,-0.054,-6.198,16.244,131.092
-0.349,0.886,-0.047,-9.015,15.916,128.649
-0.327,0.893,-0.046,-11.863,14.649,127.122
-0.305,0.879,-0.052,-13.687,9.481,127.229
-0.281,0.878,-0.053,-13.412,6.344,127.137
-0.276,0.877,-0.050,-12.130,3.305,126.443
-0.258,0.875,-0.061,-9.908,-1.954,125.481
-0.240,0.864,-0.065,-6.359,-6.115,124.603
-0.231,0.868,-0.077,-2.802,-10.649,123.366
-0.208,0.878,-0.080,1.053,-15.435,122.038
-0.185,0.884,-0.098,5.023,-18.565,119.244
-0.171,0.886,-0.107,8.237,-19.504,116.542
-0.160,0.899,-0.101,9.885,-20.511,113.878
-0.143,0.906,-0.114,10.901,-20.305,111.939
-0.125,0.921,-0.122,10.725,-18.855,110.305
-0.115,0.918,-0.140,9.359,-19.427,109.504
-0.105,0.936,-0.145,6.992,-19.534,108.412
-0.090,0.943,-0.143,3.351,-20.565,107.344
-0.094,0.941,-0.154,-0.473,-22.420,107.015
-0.066,0.940,-0.163,-4.397,-21.931,107.702
-0.055,0.959,-0.166,-7.702,-16.908,107.435
-0.040,0.959,-0.166,-10.885,-11.985,107.366
-0.022,0.959,-0.148,-13.435,-9.000,107.130
-0.019,0.960,-0.138,-16.679,-9.328,107.115
-0.013,0.978,-0.135,-20.718,-12.870,106.985
0.039,0.985,-0.125,-25.336,-17.397,108.489
0.054,0.987,-0.126,-28.885,-14.672,110.366
0.059,0.973,-0.101,-32.824,-16.855,109.275
0.084,0.969,-0.084,-36.450,-23.221,107.664
0.117,0.956,-0.082,-38.756,-26.588,105.389
0.143,0.953,-0.104,-38.634,-23.382,102.901
0.159,0.946,-0.091,-36.664,-14.649,99.748
0.186,0.941,-0.081,-35.061,-7.267,96.885
0.199,0.948,-0.070,-33.947,-1.420,93.336
0.208,0.944,-0.056,-33.046,2.679,89.115
0.231,0.953,-0.061,-32.153,5.824,84.885
0.250,0.945,-0.059,-31.267,11.092,79.809
0.260,0.949,-0.042,-30.580,14.511,74.466
0.285,0.939,-0.032,-29.924,17.366,69.466
0.312,0.937,-0.021,-28.817,19.282,64.763
0.328,0.929,-0.020,-27.389,20.183,60.237
0.339,0.928,0.006,-25.908,19.954,55.885
0.338,0.918,0.010,-24.977,18.802,51.076
0.366,0.938,0.017,-23.847,16.817,46.237
0.368,0.923,0.031,-22.779,16.092,41.557
0.378,0.927,0.044,-20.885,15.237,35.802
0.400,0.927,0.045,-18.924,15.664,30.733
0.402,0.923,0.056,-16.122,18.069,24.504
0.413,0.926,0.059,-13.000,21.779,18.397
0.409,0.923,0.069,-9.443,25.710,12.267
0.421,0.924,0.074,-6.397,27.260,6.038
0.405,0.926,0.084,-4.328,26.832,0.244
0.409,0.923,0.084,-2.198,24.916,-5.519
0.393,0.936,0.091,0.130,22.305,-10.847
0.383,0.933,0.089,2.679,20.817,-15.122
0.365,0.933,0.081,5.672,19.115,-18.450
0.351,0.939,0.080,8.351,17.595,-20.336
0.341,0.952,0.073,10.412,16.275,-21.122
0.321,0.952,0.063,11.153,14.473,-21.313
0.306,0.958,0.057,11.450,12.908,-20.382
0.300,0.965,0.041,11.328,10.969,-18.649
0.297,0.965,0.033,10.786,9.901,-16.771
0.279,0.962,0.027,10.527,9.313,-15.107
0.281,0.971,0.027,10.023,11.076,-13.763
0.272,0.965,0.022,9.954,11.511,-12.832
0.267,0.959,0.026,9.626,8.618,-11.626
0.255,0.962,0.028,8.702,3.481,-10.153
0.257,0.963,0.008,7.573,0.427,-9.756
0.252,0.964,-0.005,6.649,-0.977,-9.336
0.247,0.965,-0.015,5.779,-1.061,-8.954
0.243,0.962,-0.007,4.885,0.069,-8.634
0.250,0.969,-0.016,3.771,2.573,-8.504
0.243,0.969,-0.017,2.221,4.298,-8.374
0.235,0.973,-0.012,0.679,5.771,-8.466
0.229,0.972,-0.008,-1.137,6.366,-8.427
0.232,0.967,-0.021,-2.580,5.992,-8.191
0.222,0.974,-0.013,-4.290,6.427,-7.794
0.218,0.982,-0.007,-5.885,8.420,-7.168
0.220,0.979,-0.000,-7.145,10.756,-6.565
0.220,0.982,0.013,-8.099,11.588,-5.802
0.226,0.979,0.023,-8.977,12.290,-4.931
0.217,0.981,0.028,-9.412,12.031,-4.924
0.215,0.973,0.039,-9.626,11.061,-4.344

-1.010,0.602,-0.259,189.130,21.962,-250.137
-1.202,0.753,-0.454,178.824,24.855,-250.137
-1.346,0.911,-0.610,158.916,37.160,-250.137
-1.513,1.046,-0.752,122.679,39.328,-250.137
-1.624,1.147,-0.858,74.214,31.153,-176.015
-1.679,1.185,-0.920,26.954,25.336,-102.328
-1.691,1.132,-0.877,-19.557,20.656,-32.481
-1.632,1.042,-0.752,-56.427,12.771,26.626
-1.508,0.951,-0.588,-83.939,2.519,75.183
-1.357,0.842,-0.435,-98.771,-7.550,115.366
-1.181,0.758,-0.311,-103.427,-18.626,147.481
-1.019,0.687,-0.171,-96.710,-30.313,172.145
-0.883,0.651,-0.090,-85.359,-40.534,184.573
-0.763,0.644,-0.031,-69.817,-50.084,188.069
-0.664,0.634,-0.002,-52.595,-55.313,185.015
-0.573,0.646,-0.001,-32.511,-57.511,176.664
-0.499,0.664,-0.002,-17.031,-57.656,167.824
-0.440,0.696,-0.025,-5.939,-57.153,158.351
-0.388,0.751,-0.049,1.252,-55.786,147.130
-0.351,0.798,-0.090,3.885,-50.214,135.931
-0.313,0.833,-0.111,3.840,-43.176,125.786
-0.295,0.870,-0.117,1.489,-35.305,116.687
-0.275,0.898,-0.129,-2.344,-27.527,108.458
-0.247,0.931,-0.133,-6.542,-18.328,101.344
-0.240,0.926,-0.130,-10.305,-10.099,94.939
-0.253,0.923,-0.113,-13.061,-3.992,88.962
-0.242,0.916,-0.105,-15.053,-0.893,83.687
-0.222,0.918,-0.106,-16.359,0.344,80.550
-0.225,0.917,-0.096,-16.733,-1.282,79.084
-0.215,0.909,-0.091,-16.511,-6.916,79.626
-0.199,0.922,-0.088,-14.237,-12.519,80.542
-0.193,0.923,-0.086,-11.038,-16.504,81.359
-0.178,0.929,-0.094,-7.802,-20.053,81.122
-0.158,0.941,-0.094,-5.145,-23.626,80.832
-0.148,0.948,-0.103,-3.496,-25.137,79.878
-0.145,0.954,-0.102,-2.557,-25.756,79.160
-0.143,0.954,-0.100,-2.252,-25.313,78.443
-0.114,0.975,-0.110,-2.786,-23.626,79.137
-0.101,0.986,-0.118,-4.824,-23.313,81.321
-0.083,0.983,-0.121,-6.405,-22.061,83.389
-0.072,0.984,-0.122,-8.397,-22.008,84.649
-0.050,0.966,-0.115,-10.214,-21.397,84.931
-0.024,0.960,-0.125,-11.496,-20.435,84.267
-0.002,0.952,-0.120,-11.718,-16.557,81.634
0.018,0.958,-0.100,-12.359,-13.298,77.893
0.029,0.951,-0.095,-12.885,-12.740,74.168
0.050,0.955,-0.097,-13.038,-13.198,69.733
0.063,0.964,-0.091,-13.137,-10.687,65.221
0.080,0.966,-0.090,-13.237,-5.679,61.206
0.091,0.952,-0.087,-12.595,-0.008,56.435
0.113,0.983,-0.090,-12.313,5.458,53.374
0.123,0.968,-0.093,-11.412,14.748,49.542
0.121,0.965,-0.079,-11.412,19.626,43.298
0.122,0.968,-0.066,-12.412,22.084,36.374
0.126,0.975,-0.060,-13.000,22.603,30.008
0.123,0.981,-0.055,-12.916,23.634,25.336
0.118,0.990,-0.036,-12.878,21.710,22.038
0.117,0.986,-0.029,-13.992,15.969,20.313
0.108,0.996,-0.030,-14.496,12.496,19.305
0.115,0.993,-0.033,-14.565,9.626,19.214
0.124,0.994,-0.024,-14.023,7.809,19.366
0.120,0.990,-0.027,-13.298,6.603,19.321
0.111,0.995,-0.029,-12.084,7.183,18.504
0.112,0.998,-0.019,-11.115,8.092,17.649
0.120,1.001,-0.005,-10.718,8.183,17.672
0.116,1.009,-0.015,-10.069,8.183,17.565
0.120,1.003,-0.016,-9.702,8.420,17.603
0.110,1.010,-0.011,-9.275,7.038,17.382
0.105,0.997,-0.010,-9.244,5.000,17.252
0.110,1.002,-0.012,-9.557,2.672,17.481
0.106,0.998,-0.009,-9.679,0.992,17.847
0.109,0.993,-0.023,-9.458,0.275,19.618
0.130,1.001,-0.023,-8.924,1.473,21.275
0.138,0.991,-0.026,-8.359,2.573,22.260
0.155,0.983,-0.025,-8.221,1.244,22.137
0.158,0.981,-0.030,-8.198,-1.229,21.130
0.166,0.972,-0.033,-8.412,-4.000,19.473
0.179,0.982,-0.041,-9.046,-5.427,16.771
0.179,0.960,-0.049,-9.725,-3.641,12.985
0.182,0.970,-0.058,-10.504,0.145,8.916
0.175,0.976,-0.049,-11.420,4.298,5.229
0.176,0.979,-0.043,-12.282,9.756,1.542
0.170,0.982,-0.031,-13.481,16.374,-1.153
0.154,1.003,-0.030,-14.328,22.252,-2.954
0.153,0.996,-0.010,-15.061,26.061,-3.756
0.134,1.007,-0.001,-16.290,25.221,-3.908
0.123,1.004,0.011,-17.237,21.351,-2.794
0.112,0.997,0.028,-17.786,16.847,-1.649
0.112,1.008,0.030,-17.496,12.534,-0.405
0.123,1.011,0.039,-16.885,10.366,1.206
0.109,0.977,0.039,-15.382,8.794,3.137
0.111,0.996,0.036,-13.588,6.931,4.481
0.120,0.990,0.043,-11.771,7.595,5.527
0.115,0.979,0.042,-9.641,9.351,5.939
0.127,0.987,0.034,-6.840,10.939,6.687
0.126,0.984,0.047,-5.008,10.015,7.412
0.133,0.984,0.045,-3.748,7.076,7.496
0.130,0.995,0.058,-2.969,3.985,7.099
0.136,0.997,0.049,-2.885,1.481,6.718
0.143,1.000,0.043,-2.649,-0.496,5.977
0.151,0.987,0.039,-2.267,-0.794,5.321
0.154,0.993,0.029,-1.450,0.298,4.328
0.169,0.986,0.035,-1.061,1.466,3.275
0.163,0.987,0.031,-0.687,1.466,1.771
0.162,0.983,0.021,-0.794,0.931,0.626
0.167,0.972,0.026,-1.038,0.389,-0.603
0.168,0.979,0.016,-1.252,0.412,-1.916
0.162,0.979,0.013,-1.809,0.863,-3.656
0.161,0.982,0.019,-2.450,2.183,-5.008
0.146,0.985,0.020,-2.878,3.947,-6.160
0.149,0.992,0.023,-3.115,5.924,-6.374
0.139,0.998,0.021,-3.344,7.656,-6.069
0.132,0.992,0.021,-3.817,8.321,-5.443
0.124,1.006,0.027,-4.527,8.092,-4.252
0.120,0.996,0.034,-4.809,7.244,-3.084
0.126,1.000,0.041,-4.985,6.565,-1.740
0.123,1.005,0.037,-4.763,6.908,-0.901
0.119,0.994,0.034,-4.595,7.634,-0.405
0.119,0.990,0.049,-3.962,6.817,-0.107

-0.822,0.601,-0.449,244.328,-43.336,-250.137
-1.065,0.622,-0.597,227.344,-50.031,-250.137
-1.196,0.738,-0.832,202.076,-48.405,-250.137
-1.348,0.836,-1.062,166.290,-30.855,-243.389
-1.478,0.908,-1.148,124.985,-15.282,-187.366
-1.553,0.967,-1.200,76.832,-5.870,-124.344
-1.600,0.969,-1.174,26.901,-3.366,-61.015
-1.593,0.915,-1.089,-19.550,-7.099,-2.534
-1.527,0.820,-0.935,-57.298,-14.519,44.718
-1.428,0.742,-0.764,-84.229,-24.679,83.115
-1.286,0.669,-0.606,-98.626,-31.221,117.954
-1.161,0.616,-0.472,-101.634,-38.580,142.382
-1.034,0.559,-0.342,-95.130,-49.718,160.519
-0.900,0.547,-0.245,-82.947,-60.321,169.969
-0.781,0.564,-0.203,-68.885,-65.031,171.947
-0.684,0.588,-0.181,-54.725,-64.000,168.603
-0.612,0.609,-0.181,-42.000,-61.702,160.389
-0.552,0.653,-0.177,-31.740,-60.168,149.809
-0.510,0.687,-0.183,-23.504,-57.672,137.809
-0.468,0.737,-0.215,-16.847,-51.405,125.397
-0.426,0.790,-0.211,-12.656,-42.115,113.969
-0.393,0.851,-0.226,-10.748,-28.534,102.840
-0.375,0.886,-0.227,-10.885,-15.519,94.687
-0.369,0.913,-0.222,-12.305,-4.733,87.687
-0.357,0.935,-0.219,-14.153,3.069,83.817
