aX,aY,aZ,gX,gY,gZ
-0.865,0.079,0.880,15.931,88.855,59.794
-1.014,0.107,0.926,16.664,84.420,67.634
-1.151,0.054,0.886,17.450,66.405,85.588
-1.215,-0.011,0.846,22.863,64.328,112.557
-1.301,0.066,0.836,25.511,63.382,150.557
-1.391,-0.024,0.824,24.855,44.809,197.809
-1.433,-0.042,0.873,26.725,23.374,249.382
-1.385,-0.138,0.855,32.573,7.237,250.130
-1.217,-0.141,0.831,45.992,2.725,250.130
-1.098,-0.287,0.865,64.557,-1.962,250.130
-0.965,-0.372,0.839,83.817,-1.176,250.130
-0.804,-0.342,0.838,102.252,-12.496,250.130
-0.532,-0.319,0.759,118.695,-20.939,250.130
-0.350,-0.203,0.739,123.908,-13.565,250.130
-0.201,-0.151,0.700,121.641,-18.084,250.130
-0.040,-0.057,0.605,117.794,-13.328,250.130
0.117,0.046,0.597,108.573,-9.863,250.130
0.276,0.173,0.529,96.534,-18.687,250.130
0.471,0.195,0.469,88.221,-15.679,250.130
0.619,0.297,0.430,74.374,-10.687,250.130
0.749,0.341,0.413,58.229,-15.595,250.130
0.884,0.337,0.326,39.168,-18.649,250.130
1.023,0.380,0.286,22.779,-9.389,250.130
1.146,0.396,0.264,11.191,15.817,250.130
1.216,0.358,0.317,4.137,42.008,250.130
1.219,0.347,0.366,-2.687,58.351,250.130
1.225,0.320,0.433,-8.145,60.305,234.511
1.220,0.291,0.511,-14.282,53.718,202.542
1.195,0.296,0.594,-19.901,32.473,156.763
1.155,0.313,0.606,-19.855,15.168,104.168
1.107,0.291,0.619,-15.122,3.664,47.351
1.080,0.334,0.593,-7.656,2.122,-8.122
1.022,0.359,0.573,1.573,12.931,-56.626
0.940,0.374,0.531,9.137,32.031,-91.725
0.833,0.424,0.526,13.794,60.046,-116.321
0.657,0.444,0.590,14.885,78.344,-137.786
0.529,0.489,0.631,11.939,81.023,-152.947
0.412,0.519,0.670,9.916,80.519,-161.947
0.321,0.544,0.684,10.519,80.061,-168.557
0.233,0.574,0.723,12.939,75.023,-173.542
0.159,0.607,0.720,17.160,64.489,-174.107
0.070,0.599,0.711,21.618,51.359,-170.878
0.021,0.648,0.731,24.893,36.779,-162.328
-0.018,0.679,0.682,28.328,26.916,-151.412
-0.038,0.697,0.649,32.519,26.015,-138.298
-0.068,0.758,0.645,36.733,30.771,-121.977
-0.079,0.751,0.623,40.634,38.519,-102.718
-0.097,0.775,0.593,41.580,45.107,-83.130
-0.145,0.770,0.579,42.481,54.901,-66.366
-0.180,0.793,0.588,43.046,56.649,-55.374
-0.206,0.787,0.593,41.939,53.771,-44.420
-0.233,0.788,0.604,37.130,41.878,-34.389
-0.247,0.809,0.603,31.008,23.359,-25.015
-0.209,0.803,0.576,27.809,14.832,-16.244
-0.195,0.785,0.562,25.824,11.290,-9.359
-0.196,0.790,0.570,22.382,8.099,-4.534
-0.175,0.783,0.554,19.863,6.809,-1.206
-0.144,0.787,0.535,19.802,14.748,1.824
-0.125,0.788,0.537,19.649,28.031,4.504
-0.159,0.785,0.551,18.221,34.718,4.809
-0.144,0.802,0.570,16.267,29.664,5.550
-0.150,0.795,0.581,13.969,23.443,6.115
-0.143,0.790,0.577,11.130,16.168,5.985
-0.148,0.784,0.573,8.489,7.840,4.824
-0.133,0.790,0.586,7.176,0.176,4.107
-0.107,0.789,0.571,7.160,-4.130,4.092
-0.096,0.777,0.568,8.405,-1.893,3.832
-0.091,0.780,0.560,10.366,1.305,3.718
-0.066,0.782,0.543,13.099,8.969,4.771
-0.065,0.785,0.536,15.229,15.840,5.252
-0.081,0.776,0.545,15.878,20.092,4.595
-0.086,0.781,0.546,15.374,19.015,2.924
-0.084,0.780,0.544,14.489,15.588,1.527
-0.095,0.776,0.537,13.336,11.756,-0.374
-0.102,0.788,0.545,11.771,4.008,-2.313
-0.097,0.783,0.545,10.939,-4.565,-2.840
-0.094,0.795,0.542,11.573,-7.885,-2.901
-0.078,0.794,0.521,13.252,-4.695,-2.351
-0.088,0.785,0.511,14.115,-1.221,-2.084
-0.099,0.783,0.515,14.908,4.595,-2.695
-0.097,0.792,0.505,15.534,9.794,-3.115
-0.080,0.820,0.499,15.427,16.282,-2.191
-0.094,0.807,0.492,15.290,22.588,-1.519
-0.116,0.803,0.496,14.733,23.595,-1.962
-0.131,0.786,0.497,13.321,21.588,-3.252
-0.131,0.801,0.512,10.817,17.580,-4.305
-0.140,0.803,0.517,8.221,11.893,-5.092
-0.124,0.809,0.507,7.618,8.611,-5.130
-0.132,0.810,0.501,7.756,7.550,-5.176
-0.130,0.807,0.510,9.198,8.351,-4.718
-0.133,0.805,0.517,11.458,12.374,-3.405
-0.131,0.817,0.508,13.687,16.885,-1.427
-0.127,0.816,0.497,16.405,22.908,1.420
-0.133,0.802,0.513,18.076,27.542,4.611
-0.137,0.810,0.532,19.229,27.534,6.733
-0.137,0.795,0.524,20.473,23.664,8.305
-0.124,0.802,0.533,21.000,18.275,9.435
-0.113,0.797,0.509,21.977,15.634,10.000
-0.092,0.793,0.479,23.748,18.260,10.649
-0.087,0.784,0.480,25.092,19.244,10.687
-0.073,0.802,0.479,24.740,16.137,10.786
-0.066,0.789,0.478,23.809,11.580,9.809
-0.063,0.772,0.448,24.000,9.527,7.405
-0.057,0.760,0.427,24.794,10.267,3.748
-0.046,0.770,0.417,26.076,14.763,0.305
-0.050,0.771,0.397,26.908,21.137,-2.794
-0.046,0.787,0.396,26.176,25.802,-5.458
-0.049,0.793,0.386,25.084,28.947,-7.580
-0.057,0.791,0.384,24.145,31.977,-9.603
-0.067,0.793,0.387,21.473,33.198,-12.527
-0.084,0.790,0.399,17.328,29.985,-14.863
-0.094,0.810,0.407,13.748,25.321,-16.618
-0.109,0.794,0.383,12.427,24.115,-19.198
-0.186,0.811,0.423,10.687,18.916,-22.969
-0.147,0.816,0.409,6.504,-1.321,-26.809
-0.126,0.825,0.388,10.168,11.427,-27.954
-0.173,0.831,0.417,10.252,4.977,-28.779
-0.188,0.835,0.420,11.359,3.473,-28.588
-0.195,0.873,0.433,12.076,3.947,-25.160

-0.274,0.971,0.553,24.817,-22.412,-6.130
-0.411,1.002,0.519,38.840,-17.710,6.290
-0.576,1.099,0.517,50.947,-18.656,31.176
-0.722,1.144,0.527,59.229,-18.237,69.794
-0.901,1.137,0.493,63.763,-19.939,114.176
-0.993,1.144,0.640,61.496,-41.969,166.275
-0.937,1.044,0.534,62.847,-55.053,232.443
-0.838,1.105,0.473,66.160,-73.397,250.130
-0.779,0.966,0.405,71.221,-94.328,250.130
-0.633,0.824,0.355,78.916,-103.985,250.130
-0.376,0.710,0.217,89.160,-106.466,250.130
-0.083,0.513,0.091,102.809,-92.168,250.130
0.223,0.423,0.018,109.626,-74.771,250.130
0.502,0.295,-0.041,103.893,-68.458,250.130
0.834,0.249,-0.088,87.183,-67.176,250.130
1.139,0.188,-0.147,67.626,-68.771,250.130
1.353,0.167,-0.188,44.542,-57.931,250.130
1.560,0.065,-0.156,24.504,-39.053,250.130
1.730,0.018,-0.076,10.038,-25.969,213.115
1.868,-0.032,0.001,2.061,-8.504,152.969
1.855,-0.145,-0.025,3.244,1.817,82.924
1.795,-0.158,0.148,9.023,5.573,8.252
1.748,-0.172,0.138,15.061,7.282,-63.519
1.677,-0.088,0.198,16.099,6.824,-146.321
1.552,-0.049,0.182,16.481,30.748,-215.351
1.344,0.040,0.229,21.015,52.435,-250.137
1.128,0.172,0.239,28.038,64.962,-250.137
0.883,0.282,0.319,35.916,69.389,-250.137
0.651,0.403,0.361,43.687,61.550,-250.137
0.506,0.495,0.351,48.336,50.641,-250.137
0.346,0.615,0.354,51.382,40.504,-250.137
0.228,0.723,0.297,53.435,28.725,-250.137
0.146,0.811,0.242,55.359,17.260,-250.137
0.066,0.910,0.210,56.328,11.656,-234.351
-0.006,0.990,0.151,57.832,7.863,-205.664
-0.047,1.049,0.111,58.901,1.947,-174.473
-0.085,1.083,0.066,57.412,-10.611,-141.611
-0.093,1.104,0.042,52.008,-25.481,-114.061
-0.060,1.113,0.002,44.489,-36.168,-94.885
-0.036,1.150,-0.032,35.496,-45.214,-77.634
-0.030,1.115,-0.067,27.397,-50.183,-62.855
0.012,1.107,-0.108,20.855,-46.992,-49.099
0.054,1.095,-0.128,15.504,-40.053,-36.916
0.081,1.063,-0.108,9.412,-34.359,-25.443
0.118,1.046,-0.113,3.443,-30.786,-18.221
0.165,1.041,-0.107,-1.718,-26.786,-12.084
0.177,1.014,-0.090,-7.130,-22.008,-10.802
0.165,0.977,-0.047,-13.458,-15.878,-12.374
0.176,1.010,-0.029,-19.351,-16.359,-17.962
0.195,1.017,-0.017,-23.183,-12.695,-20.725
0.147,0.979,0.016,-25.183,-8.931,-23.122
0.160,1.007,0.042,-25.229,-9.511,-24.229
0.172,1.003,0.068,-23.427,-10.718,-21.481
0.160,0.978,0.086,-20.191,-9.611,-15.069
0.176,0.996,0.092,-17.183,-9.809,-8.443
0.199,1.012,0.082,-14.374,-7.519,-0.626
0.208,1.019,0.066,-11.611,-5.046,5.931
0.233,1.030,0.080,-10.061,1.221,11.145
0.217,0.979,0.090,-9.977,12.206,14.740
0.215,0.981,0.118,-10.634,15.542,15.534
0.213,0.977,0.137,-10.725,16.092,14.847
0.218,0.970,0.142,-9.168,16.786,14.427
0.205,0.960,0.140,-6.382,17.290,14.733
0.204,0.944,0.138,-3.840,16.847,15.405
0.212,0.948,0.142,-1.168,13.985,16.321
0.222,0.945,0.142,0.237,10.107,16.366
0.231,0.938,0.119,1.015,7.855,15.198
0.243,0.941,0.109,0.664,7.947,13.099
0.246,0.933,0.106,-0.427,8.313,11.397
0.229,0.927,0.101,-1.618,9.473,9.557
0.220,0.930,0.118,-2.542,10.931,7.672
0.205,0.934,0.121,-2.916,12.115,5.878
0.198,0.938,0.126,-2.450,12.084,5.573
0.206,0.924,0.120,-0.878,12.534,7.519
0.199,0.930,0.125,1.603,12.145,10.427
0.203,0.936,0.127,4.351,9.641,13.214
0.208,0.933,0.114,5.794,5.191,14.435
0.217,0.926,0.097,6.443,2.153,14.664
0.224,0.924,0.092,6.282,0.275,14.466
0.233,0.928,0.081,5.305,0.282,14.389
0.227,0.922,0.072,4.267,3.649,13.840
0.232,0.933,0.078,3.947,8.046,12.565
0.243,0.938,0.073,4.504,10.008,12.046
0.259,0.953,0.073,6.160,12.084,12.366
0.278,0.948,0.070,8.076,16.183,12.939
0.283,0.927,0.084,9.794,20.366,13.038
0.296,0.918,0.079,10.794,22.740,11.397
0.303,0.917,0.082,10.878,25.137,8.176
0.302,0.902,0.099,9.962,25.252,3.481
0.305,0.895,0.087,8.458,24.908,-2.916
0.299,0.882,0.091,7.336,24.061,-9.397
0.298,0.883,0.090,6.344,24.595,-15.084
0.295,0.886,0.095,5.282,27.359,-19.763
0.283,0.897,0.100,4.198,30.603,-24.603
0.268,0.913,0.096,3.588,33.519,-28.893
0.255,0.927,0.105,3.557,34.229,-32.336
0.238,0.937,0.100,3.855,35.702,-34.550
0.229,0.957,0.111,4.832,35.779,-35.718
0.227,0.975,0.110,6.229,34.565,-36.206
0.216,0.979,0.107,7.855,32.649,-36.267
0.212,0.970,0.101,10.298,30.916,-36.221
0.201,0.979,0.101,13.229,29.000,-35.061
0.191,0.974,0.101,15.954,27.519,-33.046
0.185,0.979,0.094,18.847,26.069,-30.458
0.188,0.985,0.072,21.099,24.679,-27.092
0.184,0.985,0.051,22.634,22.985,-23.267
0.199,0.986,0.047,23.221,21.794,-19.015
0.201,0.988,0.037,22.374,20.473,-14.130
0.212,0.986,0.021,20.794,18.420,-9.687
0.220,0.972,0.028,18.359,15.389,-6.191
0.238,0.968,0.028,14.557,10.870,-3.130
0.249,0.962,0.027,11.282,6.145,-1.794
0.263,0.954,0.021,8.366,1.664,-1.817
0.261,0.940,0.020,6.214,-2.374,-2.550
0.281,0.931,0.014,5.046,-5.992,-4.244
0.282,0.922,0.024,3.733,-7.595,-7.092
0.294,0.932,0.017,3.466,-7.733,-11.771
0.286,0.927,0.024,3.641,-6.718,-16.328
0.272,0.927,0.026,4.305,-5.779,-20.748

-0.449,1.347,0.004,50.641,52.420,-15.458
-0.670,1.470,0.002,58.725,66.008,19.672
-0.860,1.404,0.017,56.229,69.008,71.695
-0.990,1.449,0.057,43.611,53.595,144.000
-1.088,1.361,0.082,30.206,20.656,220.344
-1.063,1.224,0.076,21.374,-21.748,250.130
-0.948,1.016,0.060,14.557,-64.351,250.130
-0.691,0.784,-0.004,7.374,-102.313,250.130
-0.329,0.531,-0.121,1.076,-125.443,250.130
0.022,0.315,-0.187,-3.290,-132.794,250.130
0.365,0.155,-0.265,-6.405,-128.931,250.130
0.741,0.072,-0.358,-9.634,-102.450,250.130
0.989,0.052,-0.432,-12.802,-73.771,250.130
1.273,0.028,-0.395,-17.985,-39.374,250.130
1.516,0.050,-0.392,-19.191,-11.863,250.130
1.634,0.053,-0.352,-15.267,14.076,218.718
1.682,0.082,-0.291,-9.290,35.794,148.695
1.666,0.131,-0.221,-3.832,47.389,79.931
1.648,0.179,-0.157,-0.985,48.595,18.321
1.592,0.223,-0.120,-0.397,42.985,-31.382
1.506,0.260,-0.118,0.237,39.878,-73.901
1.399,0.325,-0.098,0.649,42.863,-106.351
1.262,0.373,-0.051,-2.153,40.519,-131.519
1.136,0.434,-0.019,-8.656,32.901,-150.099
1.025,0.484,0.017,-16.084,24.947,-163.412
0.903,0.528,0.045,-23.542,16.405,-173.374
0.806,0.569,0.065,-28.351,8.771,-178.443
0.732,0.602,0.068,-30.924,2.702,-180.611
0.662,0.654,0.076,-33.137,-3.924,-180.000
0.608,0.699,0.056,-33.771,-9.656,-177.359
0.546,0.710,0.073,-31.824,-15.099,-174.908
0.487,0.771,0.060,-27.687,-20.618,-167.305
0.437,0.767,0.019,-20.550,-21.779,-158.519
0.406,0.802,0.001,-13.412,-21.450,-151.183
0.370,0.844,-0.002,-7.183,-20.191,-143.969
0.326,0.874,-0.011,-3.527,-14.076,-138.130
0.270,0.914,-0.028,0.351,-9.962,-132.931
0.228,0.912,-0.047,5.153,-7.328,-125.908
0.203,0.947,-0.058,8.389,-7.000,-118.092
0.185,0.974,-0.086,10.840,-4.656,-108.756
0.168,0.990,-0.094,12.389,-0.458,-99.099
0.135,1.006,-0.098,11.924,2.206,-87.382
0.129,1.009,-0.120,9.160,1.870,-77.611
0.123,1.007,-0.120,5.481,1.649,-69.817
0.123,1.021,-0.116,0.786,4.107,-62.893
0.111,1.030,-0.110,-2.870,6.824,-56.924
0.114,1.014,-0.110,-5.565,9.817,-48.725
0.135,1.024,-0.091,-7.198,13.672,-40.061
0.139,1.005,-0.076,-8.275,16.901,-34.481
0.142,1.003,-0.065,-9.107,17.885,-31.947
0.147,1.000,-0.054,-10.626,17.618,-30.679
0.161,1.010,-0.043,-12.023,17.947,-29.374
0.175,1.004,-0.025,-12.504,20.023,-28.275
0.162,0.997,-0.023,-12.313,20.229,-26.725
0.173,0.993,-0.009,-11.687,19.351,-25.137
0.176,0.995,0.004,-11.427,18.580,-23.817
0.180,0.992,0.011,-10.878,17.756,-22.389
0.184,0.996,0.017,-10.458,16.229,-21.351
0.171,0.991,0.009,-9.412,13.336,-20.420
0.177,0.993,0.007,-8.679,11.679,-19.450
0.181,1.002,0.000,-8.076,12.527,-18.603
0.175,1.002,0.010,-7.038,13.702,-17.260
0.182,1.011,0.003,-5.832,15.786,-15.115
0.165,1.009,0.003,-4.847,17.527,-12.214
0.173,1.009,0.018,-4.962,18.489,-8.435
0.171,1.008,0.012,-5.649,17.221,-4.931
0.176,1.001,0.029,-5.908,14.626,-2.519
0.189,0.993,0.027,-5.618,13.244,-0.527
0.201,0.987,0.023,-4.924,11.382,0.366
0.204,0.982,0.030,-3.893,10.015,0.382
0.207,0.975,0.031,-3.053,9.183,-0.336
0.202,0.976,0.033,-2.038,7.573,-0.939
0.212,0.976,0.033,-1.702,5.870,-1.901
0.213,0.975,0.011,-1.588,5.916,-2.405
0.209,0.981,0.013,-1.687,5.573,-2.290
0.207,0.974,0.013,-1.565,5.405,-1.855
0.206,0.977,0.004,-1.450,6.206,-1.412
0.210,0.983,0.005,-1.756,7.832,-1.779
0.217,0.986,-0.003,-2.008,10.176,-2.504
0.206,0.981,0.010,-2.015,11.519,-2.824
0.202,0.986,0.004,-1.672,11.863,-2.275
0.183,0.988,0.014,-1.550,11.672,-1.565
0.190,0.982,0.009,-1.405,11.588,-0.687
0.190,0.977,0.012,-1.611,10.794,0.153
0.198,0.984,0.003,-2.260,9.443,0.626
0.202,0.983,0.005,-2.603,9.160,0.687
0.206,0.977,0.014,-3.237,10.023,-0.092
0.205,0.975,0.014,-3.382,10.969,-0.840
0.205,0.981,0.016,-3.260,11.290,-1.687
0.200,0.978,0.020,-2.802,11.107,-2.443
0.195,0.973,0.009,-2.244,10.763,-2.489
0.192,0.976,0.013,-1.992,10.557,-2.672
0.194,0.983,0.008,-1.992,9.473,-2.344
0.198,0.985,0.005,-2.008,9.023,-1.573
0.198,0.988,0.006,-1.565,9.252,-0.641
0.195,0.992,0.005,-1.244,9.779,0.351
0.203,0.990,0.003,-0.687,11.038,0.763
0.200,0.993,0.006,-0.374,11.916,1.351
0.202,0.981,0.009,-0.450,11.634,1.580
0.213,0.980,0.008,-0.748,11.107,1.748
0.217,0.976,0.013,-1.145,10.901,1.527
0.221,0.978,0.007,-1.420,10.183,1.282
0.222,0.970,0.013,-2.008,8.618,1.023
0.233,0.979,0.005,-2.168,8.282,0.702
0.236,0.972,0.010,-2.244,9.832,-0.198
0.236,0.967,0.014,-2.244,11.168,-1.267
0.229,0.970,0.016,-1.435,11.359,-2.458
0.231,0.974,0.018,-0.092,11.359,-3.534
0.220,0.975,0.015,1.679,12.130,-3.992
0.213,0.976,0.018,3.275,11.260,-3.992
0.214,0.972,0.008,4.351,8.893,-2.863
0.214,0.980,0.015,4.893,6.725,-1.504
0.222,0.974,-0.007,4.565,5.069,-0.954
0.224,0.975,0.005,3.725,4.160,-0.977
0.222,0.977,0.001,2.840,3.611,-1.611
0.226,0.968,-0.010,2.298,3.092,-2.275
0.228,0.975,-0.015,2.214,4.000,-2.557
0.230,0.971,-0.014,1.840,5.733,-3.191
0.219,0.969,-0.009,1.115,6.015,-4.115

-0.400,1.310,0.114,-0.145,6.107,19.267
-0.570,1.329,0.136,-6.313,-16.466,38.405
-0.724,1.348,0.120,-12.267,-43.145,69.840
-0.832,1.265,0.107,-17.550,-77.397,115.779
-0.858,1.141,0.060,-19.611,-114.008,175.763
-0.760,1.022,-0.014,-14.511,-127.718,243.489
-0.578,0.930,-0.125,-1.878,-116.718,250.130
-0.412,0.816,-0.126,9.481,-102.588,250.130
-0.202,0.539,-0.132,17.901,-102.374,250.130
0.073,0.379,-0.181,25.985,-96.969,250.130
0.296,0.254,-0.244,33.115,-88.008,250.130
0.555,0.177,-0.270,38.221,-73.198,250.130
0.775,0.131,-0.341,40.450,-54.466,250.130
0.980,0.118,-0.365,39.237,-26.824,250.130
1.158,0.108,-0.405,31.771,3.275,250.130
1.282,0.097,-0.388,18.634,35.023,250.130
1.366,0.135,-0.389,3.298,58.763,250.130
1.439,0.143,-0.300,-14.664,77.931,222.137
1.470,0.143,-0.248,-30.389,78.802,170.527
1.530,0.168,-0.202,-43.580,79.916,121.420
1.520,0.156,-0.110,-54.305,76.740,72.481
1.532,0.167,-0.052,-60.206,70.817,38.771
1.496,0.144,-0.001,-64.420,64.435,9.649
1.464,0.161,0.057,-66.992,54.947,-18.405
1.424,0.160,0.105,-67.786,48.626,-43.389
1.366,0.161,0.163,-65.267,48.672,-63.450
1.290,0.170,0.207,-59.489,51.924,-81.305
1.219,0.180,0.255,-50.611,53.313,-94.847
1.132,0.189,0.262,-38.687,50.740,-104.489
1.095,0.209,0.329,-25.641,43.046,-110.580
1.093,0.274,0.309,-12.397,32.061,-115.260
1.032,0.292,0.313,-2.802,20.374,-118.985
1.027,0.327,0.297,3.336,10.183,-125.244
1.005,0.351,0.270,7.443,3.046,-132.099
0.972,0.394,0.225,11.443,-0.275,-139.290
0.925,0.415,0.195,14.931,1.031,-144.099
0.879,0.442,0.165,19.733,3.160,-148.580
0.838,0.476,0.138,23.580,4.817,-151.634
0.782,0.504,0.123,26.931,5.740,-152.931
0.755,0.542,0.094,29.504,5.641,-151.679
0.737,0.572,0.078,30.992,4.565,-149.153
0.712,0.602,0.052,31.176,1.053,-147.374
0.686,0.619,0.029,29.802,-3.267,-147.489
0.655,0.648,0.022,26.420,-8.122,-148.947
0.626,0.679,0.012,21.191,-12.092,-151.305
0.587,0.704,0.009,15.206,-15.939,-153.336
0.557,0.721,-0.008,9.473,-17.847,-154.565
0.519,0.742,-0.021,4.015,-16.672,-154.679
0.483,0.765,-0.026,-0.641,-12.550,-153.756
0.459,0.792,-0.031,-3.122,-8.679,-152.008
0.437,0.797,-0.030,-3.832,-3.084,-148.473
0.401,0.818,-0.022,-3.412,2.366,-145.687
0.371,0.835,-0.005,-3.328,5.733,-143.672
0.333,0.845,0.003,-3.656,6.794,-141.511
0.307,0.868,0.014,-4.214,7.588,-139.695
0.278,0.894,0.014,-4.840,7.053,-137.695
0.250,0.911,0.007,-5.374,7.069,-135.237
0.229,0.926,0.008,-4.954,8.427,-132.031
0.211,0.928,0.005,-4.641,10.489,-127.611
0.192,0.944,0.003,-4.786,13.412,-122.809
0.176,0.958,0.013,-5.107,16.534,-117.382
0.157,0.954,0.010,-5.603,18.893,-111.763
0.138,0.968,0.038,-6.870,18.901,-105.634
0.119,0.986,0.047,-8.580,16.901,-101.496
0.089,1.001,0.052,-10.344,15.160,-97.885
0.071,1.004,0.052,-11.443,13.771,-93.656
0.055,1.018,0.052,-11.855,12.389,-87.977
0.040,1.031,0.056,-11.000,12.855,-81.290
0.024,1.032,0.050,-9.672,14.885,-74.611
0.008,1.024,0.057,-8.405,15.336,-66.985
-0.000,1.025,0.065,-7.573,14.618,-59.321
-0.010,1.034,0.068,-7.046,15.695,-52.557
-0.007,1.045,0.070,-6.198,17.466,-45.977
-0.021,1.043,0.079,-5.122,18.359,-38.863
-0.017,1.038,0.081,-3.756,18.153,-31.779
-0.016,1.038,0.087,-2.786,16.198,-25.015
-0.020,1.027,0.096,-3.069,12.565,-18.992
-0.006,1.030,0.098,-3.664,7.046,-13.679
0.003,1.030,0.096,-3.626,2.977,-9.015
0.014,1.023,0.092,-3.496,0.542,-5.481
0.026,1.015,0.099,-3.168,-0.962,-2.977
0.042,1.017,0.084,-2.641,-1.206,-0.328
0.056,1.004,0.088,-2.130,-0.809,1.504
0.063,1.002,0.078,-1.298,0.565,2.710
0.079,1.000,0.084,-0.557,2.786,3.771
0.088,0.991,0.087,0.313,5.359,4.389
0.091,0.983,0.088,0.611,4.901,4.198
0.106,0.983,0.090,0.908,3.939,3.344
0.108,0.983,0.075,1.076,3.511,2.252
0.114,0.980,0.076,0.611,3.298,1.504
0.120,0.983,0.077,-0.267,2.580,0.809
0.127,0.976,0.072,-0.817,2.771,0.145
0.126,0.984,0.069,-1.084,3.244,-0.573
0.127,0.979,0.071,-1.145,4.252,-1.366
0.119,0.983,0.071,-1.023,4.328,-1.824
0.116,0.980,0.062,-0.779,4.786,-2.710
0.116,0.981,0.070,-0.557,4.557,-3.168
0.105,0.988,0.067,-0.122,3.672,-3.122
0.103,0.984,0.065,0.206,2.779,-2.397
0.104,0.990,0.065,0.641,2.115,-1.656
0.108,0.988,0.063,0.672,1.557,-0.405
0.105,0.991,0.058,0.763,0.840,0.351
0.109,0.990,0.059,1.008,-0.298,1.122
0.112,0.984,0.059,0.916,-0.099,1.893
0.116,0.988,0.055,0.573,0.901,2.053
0.127,0.993,0.047,0.061,2.206,2.115
0.125,0.983,0.049,-0.786,3.763,2.137
0.139,0.982,0.057,-1.382,4.779,1.527
0.139,0.978,0.065,-2.099,6.023,0.779
0.125,0.987,0.079,-2.794,7.023,-0.527
0.130,0.985,0.077,-3.122,6.641,-1.115
0.131,0.979,0.089,-2.649,5.931,-1.672
0.123,0.976,0.087,-2.344,5.244,-1.695
0.130,0.982,0.089,-2.237,4.443,-1.687
0.134,0.988,0.084,-2.374,4.939,-1.863
0.126,0.982,0.092,-2.237,6.366,-2.718
0.125,0.987,0.098,-2.122,6.252,-3.550
0.119,0.986,0.092,-1.679,5.565,-4.481
0.121,0.983,0.095,-1.183,4.840,-4.779

-0.401,1.243,0.220,30.565,35.252,21.588
-0.570,1.317,0.270,38.160,35.573,52.649
-0.761,1.331,0.314,44.191,24.450,95.679
-0.858,1.263,0.311,50.870,0.809,162.595
-0.903,1.209,0.298,56.794,-27.847,237.000
-0.870,1.114,0.238,60.618,-54.847,250.130
-0.740,0.917,0.161,60.382,-89.756,250.130
-0.404,0.677,-0.004,59.565,-112.969,250.130
-0.015,0.475,-0.186,62.542,-104.420,250.130
0.313,0.318,-0.305,67.115,-66.603,250.130
0.617,0.187,-0.322,66.290,-25.229,250.130
0.889,0.095,-0.328,57.405,-2.069,250.130
1.133,0.093,-0.367,45.511,2.481,250.130
1.343,0.104,-0.394,32.771,6.496,250.130
1.483,0.114,-0.373,20.366,12.092,241.641
1.619,0.125,-0.380,7.366,14.962,178.634
1.681,0.147,-0.380,-5.847,19.595,114.893
1.710,0.156,-0.324,-17.038,27.634,59.855
1.692,0.171,-0.270,-27.008,33.412,4.000
1.629,0.177,-0.203,-31.855,37.153,-43.626
1.533,0.204,-0.134,-31.473,43.084,-87.038
1.396,0.207,-0.062,-29.344,46.740,-119.137
1.285,0.250,0.006,-27.321,49.115,-142.427
1.171,0.289,0.050,-25.122,50.832,-161.542
1.087,0.327,0.084,-21.817,51.344,-175.237
0.968,0.332,0.123,-17.260,48.664,-184.176
0.903,0.428,0.141,-12.802,44.763,-189.756
0.815,0.474,0.146,-9.611,40.809,-190.496
0.726,0.551,0.151,-7.550,32.061,-188.962
0.668,0.594,0.138,-4.832,23.053,-185.435
0.626,0.642,0.098,-1.756,18.267,-178.985
0.586,0.679,0.104,2.221,15.160,-170.687
0.542,0.716,0.088,6.267,9.840,-159.870
0.497,0.755,0.076,9.344,1.679,-147.527
0.464,0.788,0.056,10.198,-4.344,-138.725
0.434,0.806,0.046,9.817,-8.870,-130.458
0.402,0.844,0.033,8.359,-15.038,-121.504
0.366,0.864,0.005,6.893,-22.412,-112.626
0.357,0.886,-0.011,5.275,-26.282,-104.954
0.329,0.910,-0.033,3.427,-27.702,-97.969
0.307,0.924,-0.056,1.908,-28.771,-90.947
0.292,0.934,-0.088,0.359,-27.359,-83.489
0.277,0.948,-0.084,-1.344,-23.595,-76.756
0.282,0.964,-0.098,-2.931,-19.107,-70.771
0.275,0.965,-0.109,-4.321,-13.809,-64.992
0.271,0.972,-0.092,-5.275,-7.893,-59.847
0.260,0.960,-0.086,-7.115,-4.916,-55.527
0.258,0.962,-0.072,-9.405,-4.893,-52.351
0.261,0.967,-0.065,-11.992,-6.397,-50.557
0.258,0.962,-0.071,-13.824,-6.977,-49.061
0.264,0.954,-0.068,-15.107,-6.328,-47.435
0.275,0.948,-0.068,-15.275,-2.565,-45.939
0.284,0.948,-0.078,-14.008,3.603,-44.710
0.300,0.934,-0.087,-12.374,11.473,-43.779
0.309,0.930,-0.079,-10.779,18.779,-43.313
0.317,0.931,-0.073,-9.664,25.817,-44.137
0.316,0.931,-0.050,-9.656,30.595,-46.176
0.312,0.932,-0.031,-10.397,33.275,-48.870
0.297,0.930,-0.020,-11.496,32.634,-52.954
0.283,0.940,-0.022,-11.840,31.191,-56.183
0.286,0.947,-0.018,-11.924,31.931,-58.405
0.260,0.952,-0.004,-12.824,33.832,-60.397
0.240,0.968,0.003,-13.947,34.344,-61.794
0.219,0.969,0.019,-14.939,33.191,-62.015
0.202,0.980,0.022,-15.794,32.489,-61.115
0.179,0.997,0.030,-16.237,31.389,-59.718
0.173,1.012,0.050,-15.809,31.649,-58.145
0.148,0.994,0.041,-14.908,32.893,-55.977
0.132,1.004,0.060,-14.008,31.656,-52.840
0.124,1.014,0.068,-13.374,28.962,-49.221
0.119,1.002,0.070,-12.237,26.397,-44.840
0.112,1.010,0.077,-10.298,24.290,-39.939
0.114,1.012,0.078,-8.076,21.840,-35.344
0.107,1.007,0.083,-6.275,18.985,-32.168
0.101,1.011,0.099,-5.443,15.664,-29.588
0.097,1.011,0.092,-4.679,12.351,-27.122
0.092,1.010,0.082,-4.038,9.634,-25.481
0.084,1.013,0.087,-3.557,7.069,-23.725
0.088,1.011,0.085,-3.252,4.237,-21.290
0.089,1.015,0.061,-2.427,3.351,-18.832
0.087,1.012,0.058,-1.069,4.313,-16.290
0.091,1.006,0.045,0.038,6.084,-14.153
0.099,0.995,0.036,1.168,8.573,-12.580
0.102,1.000,0.036,2.298,12.489,-11.565
0.102,0.994,0.035,3.015,17.244,-11.008
0.112,0.989,0.029,3.359,20.107,-11.221
0.107,0.990,0.046,3.748,19.328,-11.634
0.100,0.990,0.048,3.359,17.374,-12.000
0.102,0.990,0.047,2.809,15.000,-11.992
0.100,0.992,0.041,1.878,12.397,-12.015
0.093,0.991,0.045,1.313,11.015,-11.405
0.100,1.003,0.047,0.527,9.221,-10.840
0.094,0.999,0.035,-0.046,8.282,-10.282
0.090,1.000,0.035,-0.656,8.458,-9.771
0.094,1.005,0.045,-1.008,10.313,-9.359
0.085,0.999,0.036,-1.145,11.573,-9.015
0.084,1.003,0.046,-1.718,11.313,-8.679
0.081,1.004,0.060,-2.275,11.466,-7.992
0.083,1.010,0.057,-2.565,10.824,-7.107
0.080,1.011,0.069,-2.603,9.511,-5.527
0.071,1.003,0.061,-2.626,7.695,-4.275
0.073,1.002,0.068,-2.573,5.321,-2.824
0.083,1.001,0.073,-2.534,3.023,-1.008
0.088,1.000,0.054,-1.954,1.832,0.412
0.094,0.993,0.055,-1.031,1.466,1.656
0.097,0.996,0.050,0.290,2.534,2.084
0.106,0.989,0.050,1.580,3.191,1.664
0.108,0.989,0.055,1.786,3.992,1.061
0.105,0.992,0.044,1.710,4.855,0.565
0.106,0.986,0.045,1.290,4.282,-0.038
0.110,0.986,0.040,0.710,4.107,-0.008
0.104,0.992,0.042,0.053,4.511,-0.344
0.108,0.990,0.043,-0.473,4.618,-0.725
0.108,0.989,0.039,-0.656,4.634,-1.053
0.108,0.991,0.041,-1.069,5.183,-1.229
0.110,0.989,0.044,-0.885,5.420,-1.366
0.112,0.987,0.042,-0.435,4.588,-1.458
0.101,0.994,0.030,0.107,3.878,-1.130
0.104,0.986,0.042,0.511,3.817,-0.344

-0.456,1.176,0.201,11.954,49.412,10.985
-0.618,1.212,0.251,24.069,54.252,43.656
-0.751,1.297,0.253,38.489,46.405,92.000
-0.905,1.254,0.289,49.901,34.679,148.481
-0.954,1.261,0.267,53.763,3.084,219.687
-0.961,1.128,0.211,60.427,-35.656,250.130
-0.864,1.002,0.118,70.290,-55.092,250.130
-0.668,0.733,0.066,71.725,-97.000,250.130
-0.314,0.487,-0.095,65.603,-134.542,250.130
0.029,0.323,-0.232,55.969,-151.466,250.130
0.488,0.200,-0.455,40.618,-148.893,250.130
0.856,0.116,-0.568,22.740,-114.855,250.130
1.213,0.041,-0.683,2.260,-60.221,250.130
1.458,0.031,-0.651,-17.481,-8.954,250.130
1.625,0.001,-0.587,-37.145,34.710,250.130
1.775,-0.026,-0.534,-56.298,64.198,212.588
1.856,0.020,-0.390,-66.641,73.893,124.916
1.840,0.016,-0.283,-67.206,64.710,32.450
1.769,0.039,-0.198,-60.542,55.634,-33.763
1.679,0.103,-0.146,-51.252,54.107,-85.038
1.520,0.152,-0.098,-43.939,59.794,-122.412
1.371,0.239,-0.040,-39.855,62.718,-149.832
1.210,0.278,0.016,-38.427,60.420,-170.466
1.047,0.327,0.066,-39.290,56.237,-186.466
0.906,0.420,0.227,-40.290,53.664,-195.534
0.821,0.433,0.143,-41.832,52.542,-200.069
0.760,0.508,0.156,-43.282,50.160,-198.840
0.682,0.544,0.194,-43.863,48.603,-192.000
0.623,0.599,0.223,-44.260,42.573,-182.992
0.588,0.634,0.243,-43.573,32.023,-172.817
0.572,0.665,0.227,-41.664,22.931,-161.351
0.556,0.691,0.203,-38.427,17.420,-149.550
0.521,0.715,0.223,-35.115,15.252,-138.863
0.495,0.742,0.212,-31.840,10.878,-129.656
0.471,0.761,0.206,-26.595,7.420,-120.611
0.455,0.782,0.202,-20.534,5.756,-111.023
0.452,0.799,0.188,-15.466,3.450,-102.649
0.439,0.816,0.165,-11.069,-0.046,-94.092
0.434,0.833,0.152,-7.389,-2.473,-87.702
0.426,0.851,0.144,-5.725,-3.573,-83.626
0.414,0.871,0.144,-5.687,-3.053,-82.328
0.396,0.878,0.144,-6.336,-3.725,-82.061
0.382,0.890,0.135,-6.115,-3.863,-81.229
0.367,0.903,0.135,-5.489,-3.840,-80.107
0.344,0.907,0.129,-4.740,-2.260,-78.489
0.332,0.921,0.128,-4.206,-2.718,-76.557
0.314,0.923,0.129,-3.496,-2.023,-74.725
0.307,0.929,0.101,-2.763,-0.198,-72.107
0.309,0.931,0.105,-2.489,1.115,-69.489
0.284,0.934,0.106,-2.679,3.000,-66.366
0.276,0.935,0.114,-3.908,4.252,-63.954
0.264,0.942,0.119,-6.176,4.359,-62.496
0.256,0.954,0.106,-8.084,2.344,-60.527
0.255,0.962,0.115,-8.649,0.954,-58.840
0.244,0.961,0.118,-8.130,1.252,-57.023
0.232,0.960,0.115,-7.519,2.336,-54.565
0.228,0.963,0.120,-6.847,4.000,-51.847
0.219,0.963,0.113,-6.656,6.618,-49.115
0.213,0.969,0.112,-6.321,9.107,-47.366
0.207,0.971,0.126,-6.008,11.336,-45.122
0.204,0.970,0.135,-5.840,11.641,-42.511
0.199,0.957,0.147,-5.527,9.573,-39.504
0.204,0.961,0.145,-5.374,6.183,-36.977
0.199,0.949,0.147,-5.206,3.710,-35.374
0.216,0.946,0.140,-5.107,1.718,-35.420
0.223,0.954,0.133,-5.557,0.779,-36.809
0.220,0.958,0.132,-5.893,1.176,-39.626
0.214,0.956,0.128,-5.282,3.496,-41.931
0.197,0.956,0.120,-3.511,7.405,-43.420
0.190,0.959,0.137,-1.618,11.153,-43.771
0.181,0.964,0.133,0.420,13.794,-43.511
0.174,0.960,0.138,2.252,16.122,-43.038
0.161,0.956,0.142,3.863,16.656,-42.282
0.160,0.959,0.128,4.687,15.145,-41.634
0.154,0.957,0.120,4.802,13.893,-40.969
0.159,0.961,0.110,4.092,12.084,-40.252
0.151,0.968,0.107,2.626,9.015,-39.779
0.150,0.959,0.109,0.924,4.282,-39.427
0.153,0.959,0.090,-1.382,0.046,-39.221
0.157,0.966,0.092,-3.573,-1.672,-39.656
0.148,0.975,0.095,-5.855,-2.076,-40.420
0.123,0.980,0.090,-7.573,-1.321,-40.962
0.117,0.989,0.086,-8.298,0.183,-40.672
0.109,0.983,0.094,-8.336,3.099,-39.565
0.099,0.988,0.101,-8.305,7.252,-37.214
0.087,0.995,0.093,-8.031,9.916,-34.504
0.080,0.995,0.098,-7.771,12.183,-30.794
0.081,0.992,0.108,-7.580,14.122,-27.740
0.075,0.980,0.116,-7.893,16.351,-24.374
0.073,0.992,0.124,-8.870,16.443,-21.603
0.068,0.979,0.131,-10.412,15.710,-19.107
0.067,0.988,0.157,-11.313,13.160,-17.550
0.054,0.987,0.165,-11.763,10.267,-16.901
0.052,0.983,0.164,-11.511,7.588,-16.046
0.050,0.986,0.179,-10.313,4.794,-15.160
0.056,0.983,0.177,-9.000,2.244,-13.679
0.054,0.976,0.172,-7.336,1.756,-11.939
0.058,0.987,0.178,-5.832,1.527,-10.885
0.051,0.987,0.172,-4.458,1.252,-10.870
0.043,0.972,0.172,-3.260,2.092,-11.359
0.036,0.990,0.164,-2.389,3.366,-11.962
0.044,0.995,0.161,-2.031,5.046,-12.137
0.032,0.994,0.154,-1.511,6.489,-11.130
0.027,0.987,0.145,-1.374,5.748,-9.435
0.025,0.990,0.151,-1.489,5.580,-7.626
0.027,0.978,0.154,-2.130,6.008,-6.656
0.030,0.989,0.158,-2.893,5.611,-5.580
0.036,0.991,0.152,-3.344,4.664,-4.557
0.035,0.986,0.155,-3.573,4.580,-3.840
0.038,0.985,0.152,-3.122,4.458,-3.076
0.036,0.976,0.147,-3.198,3.908,-2.824
0.034,0.975,0.152,-3.153,3.397,-2.366
0.040,0.981,0.142,-3.099,3.885,-1.710
0.044,0.975,0.139,-3.176,4.298,-1.000
0.047,0.986,0.138,-3.328,4.527,0.168
0.047,0.977,0.139,-3.458,5.038,1.435
0.051,0.980,0.144,-3.595,4.969,2.489
0.058,0.975,0.136,-3.725,3.817,3.435
0.060,0.973,0.134,-3.649,2.359,4.511

-0.416,1.253,0.200,28.817,69.237,1.885
-0.725,1.342,0.267,37.435,95.511,18.878
-0.931,1.460,0.360,36.664,98.824,56.198
-1.226,1.318,0.453,29.885,59.847,102.527
-1.436,1.199,0.582,20.733,-14.855,160.504
-1.557,0.977,0.565,20.008,-99.160,231.939
-1.447,0.742,0.481,41.115,-174.626,250.130
-1.177,0.713,0.200,84.641,-220.481,250.130
-0.894,0.487,0.080,117.145,-250.137,250.130
-0.460,-0.037,-0.090,144.977,-250.137,250.130
0.125,-0.209,-0.392,168.099,-250.137,250.130
0.800,-0.312,-0.738,171.710,-206.473,250.130
1.262,-0.318,-0.921,151.695,-122.519,250.130
1.488,-0.397,-1.005,122.336,-44.252,250.130
1.815,-0.294,-1.056,80.824,23.321,250.130
1.862,-0.363,-0.815,48.099,82.885,250.130
1.971,-0.302,-0.759,13.489,96.664,247.763
2.000,-0.307,-0.660,-18.885,81.435,136.443
2.000,-0.171,-0.549,-40.992,68.099,10.595
1.896,-0.115,-0.483,-48.969,77.267,-65.511
1.646,-0.005,-0.340,-51.855,91.076,-109.389
1.348,0.097,-0.184,-54.412,88.779,-139.046
1.135,0.199,-0.074,-56.282,76.992,-153.695
1.035,0.281,-0.011,-57.366,63.672,-157.580
0.990,0.325,0.026,-56.069,55.076,-154.221
0.935,0.384,0.070,-53.580,42.115,-147.130
0.892,0.415,0.164,-52.420,28.122,-139.412
0.887,0.415,0.109,-53.374,19.511,-133.023
0.920,0.472,0.092,-54.809,12.412,-127.412
0.884,0.453,0.104,-56.000,12.855,-121.824
0.872,0.435,0.111,-56.122,13.015,-120.344
0.879,0.445,0.095,-54.550,13.115,-123.565
0.876,0.460,0.101,-51.725,16.244,-126.664
0.861,0.459,0.084,-47.664,19.603,-129.053
0.842,0.485,0.087,-41.466,20.405,-133.046
0.814,0.519,0.094,-35.053,18.405,-137.573
0.787,0.540,0.088,-29.137,17.176,-141.153
0.785,0.567,0.083,-23.076,17.550,-143.733
0.757,0.597,0.064,-17.244,20.313,-146.634
0.724,0.626,0.069,-13.611,23.908,-149.916
0.681,0.657,0.070,-11.664,27.122,-153.282
0.629,0.696,0.090,-11.435,28.023,-156.321
0.574,0.727,0.093,-11.748,27.977,-159.221
0.525,0.748,0.086,-11.145,28.573,-159.695
0.486,0.777,0.090,-8.939,29.985,-157.420
0.444,0.800,0.102,-7.725,29.771,-153.397
0.409,0.832,0.110,-7.702,27.458,-149.168
0.375,0.855,0.114,-8.542,24.710,-144.809
0.332,0.870,0.117,-9.794,23.542,-141.031
0.303,0.902,0.116,-10.473,23.137,-136.565
0.278,0.913,0.104,-8.832,24.389,-131.198
0.243,0.916,0.115,-5.817,25.084,-123.992
0.214,0.938,0.133,-2.985,22.473,-115.748
0.204,0.949,0.120,-0.565,21.840,-107.802
0.184,0.964,0.115,2.298,22.595,-98.947
0.161,0.982,0.113,4.489,22.153,-90.695
0.135,0.979,0.121,6.183,20.076,-82.519
0.129,1.001,0.109,7.473,18.435,-75.160
0.125,1.007,0.099,8.702,18.939,-69.504
0.112,1.012,0.088,10.115,20.855,-63.427
0.104,1.003,0.088,11.137,21.000,-56.542
0.111,1.005,0.082,10.878,19.267,-49.511
0.110,1.010,0.071,9.656,17.771,-42.817
0.114,1.010,0.069,8.000,16.809,-37.595
0.102,1.014,0.085,5.473,15.214,-32.550
0.112,1.010,0.071,3.672,14.153,-29.130
0.109,1.005,0.069,2.260,13.053,-25.702
0.112,1.010,0.073,1.382,11.473,-22.282
0.117,1.003,0.067,1.168,10.229,-19.137
0.114,0.995,0.073,0.626,9.435,-16.008
0.116,0.992,0.069,0.214,8.244,-13.954
0.128,0.995,0.067,0.122,8.328,-11.985
0.133,0.987,0.062,0.313,9.939,-9.786
0.148,0.980,0.057,0.939,12.305,-7.115
0.158,0.977,0.069,0.542,14.137,-4.443
0.164,0.982,0.074,-0.885,14.908,-3.397
0.185,0.975,0.074,-2.382,14.214,-3.382
0.195,0.969,0.083,-3.153,13.733,-3.885
0.200,0.972,0.086,-3.275,13.771,-5.191
0.200,0.966,0.094,-3.183,12.939,-7.076
0.204,0.966,0.101,-3.130,10.435,-8.695
0.192,0.966,0.102,-3.290,9.947,-9.550
0.193,0.977,0.092,-3.794,11.466,-10.099
0.192,0.971,0.100,-4.038,12.901,-10.504
0.182,0.977,0.115,-3.840,12.458,-10.115
0.179,0.980,0.111,-3.473,12.084,-9.435
0.180,0.979,0.097,-2.221,12.893,-8.557
0.185,0.985,0.105,-1.046,14.443,-7.603
0.186,0.976,0.117,0.366,15.580,-7.405
0.179,0.983,0.119,1.092,13.824,-7.466
0.177,0.977,0.119,1.763,11.046,-7.634
0.169,0.971,0.110,1.977,8.115,-7.031
0.167,0.975,0.115,2.389,5.084,-5.908
0.174,0.982,0.105,2.588,3.053,-4.779
0.171,0.969,0.100,2.992,1.481,-3.733
0.172,0.982,0.084,3.076,1.595,-2.527
0.182,0.978,0.081,2.802,2.733,-1.733
0.188,0.977,0.083,2.305,4.763,-1.374
0.187,0.976,0.082,1.038,6.863,-1.916
0.184,0.969,0.083,0.366,6.779,-2.435
0.180,0.971,0.087,0.519,7.473,-2.702
0.195,0.973,0.085,1.160,9.260,-2.672
0.185,0.968,0.093,2.092,10.473,-2.779
0.179,0.972,0.098,1.885,9.618,-3.466
0.175,0.976,0.094,1.847,6.748,-4.229
0.177,0.966,0.084,1.695,3.733,-4.733
0.179,0.970,0.077,1.855,2.939,-4.550
0.189,0.972,0.066,2.305,4.863,-4.763
0.188,0.969,0.069,2.885,7.183,-4.740
0.186,0.971,0.075,2.527,7.947,-4.771
0.195,0.966,0.073,1.718,8.634,-5.046
0.189,0.971,0.076,1.267,9.298,-5.214
0.190,0.970,0.083,0.664,9.954,-5.496
0.179,0.976,0.074,0.099,10.443,-5.267
0.185,0.968,0.096,0.122,10.298,-4.878
0.178,0.977,0.090,-0.565,8.260,-4.794
0.179,0.966,0.103,-0.924,6.099,-5.000
0.178,0.969,0.087,-0.947,4.618,-5.107
0.191,0.968,0.096,-1.069,4.496,-5.443

-0.426,1.230,0.201,33.870,-8.321,53.824
-0.607,1.284,0.253,37.855,-5.962,89.237
-0.884,1.330,0.321,40.672,-20.779,136.756
-1.052,1.282,0.325,47.237,-55.214,196.267
-1.146,1.121,0.267,60.885,-87.412,250.130
-1.103,0.965,0.175,77.718,-106.947,250.130
-0.986,0.821,0.057,95.275,-122.847,250.130
-0.819,0.562,-0.034,104.313,-144.305,250.130
-0.597,0.328,-0.153,108.718,-169.901,250.130
-0.247,0.150,-0.355,114.092,-176.038,250.130
0.180,-0.019,-0.586,120.282,-137.046,250.130
0.557,-0.163,-0.757,119.084,-74.565,250.130
0.957,-0.268,-0.795,103.076,-13.641,250.130
1.295,-0.241,-0.819,73.901,31.076,250.130
1.592,-0.286,-0.833,40.107,66.901,250.130
1.790,-0.291,-0.765,2.466,84.519,250.130
1.909,-0.323,-0.709,-33.870,93.450,250.130
2.000,-0.341,-0.634,-63.565,99.740,184.145
2.000,-0.352,-0.491,-83.603,105.687,96.084
2.000,-0.340,-0.317,-94.779,108.069,12.359
1.919,-0.284,-0.152,-94.550,108.221,-52.794
1.769,-0.233,-0.016,-86.664,108.748,-95.840
1.577,-0.147,0.129,-74.985,104.947,-131.687
1.441,-0.079,0.214,-65.351,94.489,-151.947
1.342,-0.016,0.276,-56.817,80.244,-164.359
1.226,0.066,0.316,-48.298,64.855,-172.176
1.216,0.170,0.232,-43.076,53.794,-173.397
1.078,0.174,0.354,-40.603,44.588,-173.313
1.064,0.248,0.341,-38.588,35.412,-169.664
0.979,0.262,0.348,-37.656,29.344,-162.779
0.911,0.301,0.337,-36.702,20.809,-156.420
0.857,0.328,0.330,-35.405,9.588,-151.374
0.828,0.376,0.295,-30.641,1.702,-145.687
0.795,0.376,0.246,-21.618,-2.870,-137.702
0.772,0.394,0.196,-8.840,-6.618,-129.489
0.786,0.424,0.154,5.931,-9.595,-118.649
0.789,0.457,0.109,19.053,-11.267,-110.122
0.781,0.500,0.058,29.382,-10.817,-103.336
0.773,0.533,0.015,35.229,-11.847,-99.779
0.763,0.564,-0.021,37.519,-12.389,-98.038
0.749,0.596,-0.055,34.786,-13.115,-97.618
0.736,0.634,-0.075,28.939,-13.664,-98.267
0.720,0.661,-0.104,19.344,-12.145,-99.702
0.705,0.679,-0.116,10.328,-6.641,-100.962
0.682,0.698,-0.125,3.130,-0.817,-101.840
0.664,0.709,-0.115,-3.947,3.473,-102.931
0.634,0.736,-0.107,-8.870,7.672,-104.550
0.615,0.739,-0.098,-11.618,11.916,-106.427
0.578,0.751,-0.081,-14.099,15.313,-106.763
0.556,0.765,-0.071,-16.084,18.382,-106.321
0.540,0.774,-0.057,-17.466,23.076,-104.878
0.518,0.789,-0.046,-18.962,27.092,-103.504
0.481,0.808,-0.017,-20.779,28.794,-101.588
0.455,0.826,0.001,-22.748,27.809,-98.756
0.442,0.842,0.020,-24.321,25.863,-94.519
0.423,0.848,0.023,-25.763,22.000,-90.885
0.413,0.861,0.038,-27.885,16.229,-84.000
0.410,0.876,0.041,-29.435,12.092,-78.191
0.402,0.892,0.052,-30.214,11.237,-71.626
0.405,0.912,0.040,-27.985,17.221,-65.763
0.382,0.898,0.059,-24.458,24.740,-60.924
0.370,0.903,0.083,-21.756,26.336,-55.878
0.367,0.902,0.090,-20.069,25.229,-51.786
0.362,0.908,0.105,-17.817,25.435,-47.168
0.361,0.911,0.113,-15.160,25.511,-42.405
0.353,0.917,0.123,-12.969,22.824,-38.160
0.347,0.916,0.117,-11.580,17.076,-33.221
0.350,0.915,0.119,-11.076,11.145,-29.015
0.354,0.923,0.116,-10.473,7.412,-24.405
0.365,0.924,0.111,-9.847,7.244,-20.511
0.381,0.917,0.106,-8.962,8.931,-17.420
0.383,0.908,0.106,-8.298,11.412,-16.122
0.394,0.912,0.108,-7.626,12.893,-15.130
0.392,0.903,0.120,-6.435,15.412,-15.069
0.396,0.901,0.119,-4.939,17.802,-15.115
0.398,0.894,0.130,-3.641,18.847,-15.145
0.407,0.896,0.135,-2.214,19.962,-14.718
0.397,0.897,0.136,-0.542,21.069,-14.565
0.397,0.890,0.134,0.489,18.855,-14.427
0.403,0.898,0.142,0.763,13.267,-15.076
0.396,0.901,0.130,0.221,8.534,-16.069
0.394,0.911,0.122,-0.733,6.290,-17.038
0.380,0.917,0.122,-2.641,4.733,-17.649
0.371,0.924,0.110,-4.954,4.069,-17.649
0.361,0.921,0.122,-6.137,4.099,-16.771
0.358,0.922,0.111,-6.565,5.198,-15.076
0.346,0.917,0.105,-6.412,6.893,-12.802
0.343,0.919,0.106,-5.771,8.733,-9.878
0.336,0.931,0.112,-4.756,10.267,-6.672
0.331,0.935,0.125,-3.718,11.748,-3.878
0.340,0.933,0.125,-2.260,12.267,-0.901
0.338,0.925,0.131,-0.756,11.397,0.595
0.344,0.923,0.137,0.122,8.847,1.679
0.355,0.912,0.140,1.000,5.832,2.733
0.372,0.912,0.127,1.565,6.000,2.969
0.381,0.899,0.125,2.137,7.557,2.618
0.391,0.906,0.129,2.214,8.053,1.489
0.401,0.906,0.121,1.779,8.412,-0.053
0.406,0.896,0.117,1.611,9.725,-2.069
0.409,0.906,0.115,1.450,9.740,-3.580
0.402,0.899,0.114,1.092,9.244,-4.168
0.403,0.901,0.114,0.641,8.641,-4.473
0.400,0.897,0.114,-0.023,8.328,-5.519
0.406,0.900,0.114,-1.084,8.580,-6.504
0.409,0.898,0.108,-2.130,8.412,-7.595
0.406,0.901,0.111,-3.359,7.855,-8.366
0.410,0.901,0.115,-4.168,8.878,-8.947
0.404,0.905,0.111,-4.061,11.038,-9.061
0.406,0.902,0.114,-3.038,13.527,-9.092
0.404,0.901,0.119,-1.771,15.435,-9.084
0.401,0.896,0.128,-1.221,15.527,-9.076
0.399,0.908,0.131,-1.351,12.786,-9.779
0.408,0.905,0.130,-1.573,12.504,-10.160
0.407,0.906,0.138,-1.183,12.733,-10.634
0.401,0.901,0.139,-1.076,10.802,-11.038
0.395,0.906,0.134,-1.282,9.618,-11.412
0.400,0.898,0.129,-0.969,9.763,-12.115
0.397,0.901,0.136,-0.443,9.534,-12.939
0.389,0.902,0.141,0.366,8.183,-13.702

-0.376,1.244,0.225,13.198,97.382,-13.626
-0.708,1.237,0.314,21.344,124.282,1.412
-0.855,1.131,0.378,32.267,107.290,49.008
-0.862,1.091,0.377,45.137,77.153,133.412
-0.867,1.092,0.375,54.641,49.679,242.382
-0.875,1.059,0.389,53.275,0.908,250.130
-0.796,0.768,0.349,45.237,-95.405,250.130
-0.441,0.455,0.120,48.344,-172.023,250.130
0.057,0.247,-0.166,61.374,-184.015,250.130
0.557,0.070,-0.399,70.076,-143.069,250.130
0.958,-0.051,-0.492,66.038,-83.855,250.130
1.336,-0.154,-0.519,48.679,-25.237,250.130
1.654,-0.195,-0.491,20.122,25.053,250.130
1.860,-0.196,-0.411,-9.656,49.366,250.130
1.972,-0.207,-0.348,-34.527,59.107,232.053
2.000,-0.219,-0.248,-48.977,62.954,145.672
1.985,-0.209,-0.135,-55.626,55.519,65.443
1.914,-0.137,-0.059,-57.908,40.061,-5.847
1.759,-0.079,-0.030,-54.863,41.710,-53.298
1.540,-0.005,0.051,-50.779,48.450,-84.710
1.364,0.055,0.138,-47.969,49.924,-106.046
1.239,0.127,0.195,-48.000,43.511,-119.336
1.166,0.177,0.229,-48.267,36.725,-126.176
1.091,0.223,0.246,-47.183,33.885,-129.214
1.028,0.258,0.259,-44.374,36.115,-131.031
0.956,0.298,0.280,-41.092,40.359,-129.962
0.906,0.330,0.313,-38.198,39.802,-125.916
0.879,0.359,0.318,-34.519,33.626,-119.672
0.857,0.381,0.326,-29.611,24.023,-112.771
0.845,0.392,0.326,-24.252,11.740,-106.206
0.847,0.411,0.279,-19.092,0.588,-101.748
0.861,0.433,0.251,-14.137,-5.931,-99.176
0.879,0.456,0.208,-8.588,-6.458,-98.366
0.872,0.461,0.184,-3.779,-5.565,-98.527
0.861,0.479,0.165,0.565,-4.038,-99.893
0.846,0.499,0.140,3.412,-1.817,-102.710
0.826,0.518,0.128,5.359,1.504,-106.740
0.808,0.543,0.117,7.031,5.641,-110.794
0.778,0.579,0.113,6.840,10.130,-114.481
0.738,0.605,0.119,4.969,11.649,-117.496
0.716,0.637,0.120,2.260,12.053,-119.237
0.687,0.652,0.126,-0.626,12.267,-120.389
0.653,0.675,0.124,-2.809,11.122,-121.198
0.616,0.690,0.130,-5.153,8.969,-121.481
0.592,0.710,0.131,-7.092,6.931,-121.695
0.566,0.731,0.122,-8.336,8.069,-121.214
0.537,0.750,0.133,-8.527,10.786,-120.305
0.505,0.772,0.133,-8.252,13.336,-117.687
0.484,0.786,0.146,-7.863,14.916,-113.634
0.462,0.802,0.151,-6.786,16.366,-108.137
0.450,0.812,0.159,-5.641,17.382,-102.664
0.432,0.823,0.167,-4.809,17.328,-97.069
0.418,0.828,0.161,-3.969,15.618,-92.359
0.419,0.843,0.170,-3.038,14.725,-90.229
0.403,0.855,0.180,-2.397,13.748,-86.870
0.387,0.860,0.177,-1.687,12.481,-83.756
0.378,0.870,0.176,-0.557,13.229,-80.901
0.379,0.871,0.170,1.603,15.191,-76.771
0.372,0.877,0.162,4.183,16.511,-72.924
0.363,0.882,0.166,6.450,17.664,-69.466
0.355,0.886,0.166,8.641,18.481,-65.779
0.358,0.888,0.175,10.183,18.382,-62.557
0.359,0.889,0.173,11.023,16.771,-59.458
0.349,0.895,0.174,11.336,15.153,-56.985
0.345,0.897,0.170,11.244,13.244,-54.931
0.345,0.905,0.171,10.977,11.611,-52.771
0.348,0.902,0.158,10.733,10.771,-50.534
0.343,0.903,0.157,10.527,9.977,-48.260
0.338,0.911,0.155,10.092,9.046,-45.977
0.330,0.911,0.147,9.641,7.908,-44.122
0.325,0.919,0.138,8.863,7.718,-42.374
0.326,0.917,0.131,8.038,7.916,-40.634
0.321,0.921,0.127,6.481,9.153,-38.252
0.311,0.925,0.122,4.992,10.679,-34.985
0.314,0.917,0.121,3.382,10.855,-31.924
0.313,0.921,0.136,2.031,9.931,-29.595
0.310,0.921,0.135,0.580,8.206,-27.817
0.322,0.927,0.130,-1.183,5.634,-26.290
0.316,0.925,0.136,-3.000,4.092,-26.420
0.315,0.925,0.135,-3.863,6.038,-27.076
0.314,0.926,0.150,-3.916,7.183,-27.275
0.300,0.927,0.157,-3.252,6.771,-27.313
0.300,0.925,0.146,-1.832,7.229,-27.282
0.293,0.925,0.151,-0.351,9.008,-26.733
0.284,0.925,0.163,0.496,9.557,-26.160
0.292,0.927,0.149,1.863,11.206,-24.763
0.289,0.930,0.144,3.649,14.855,-23.565
0.286,0.927,0.139,5.023,16.748,-22.672
0.282,0.931,0.148,5.969,17.099,-22.176
0.291,0.935,0.147,6.137,16.550,-22.023
0.278,0.932,0.144,5.863,15.573,-22.595
0.286,0.939,0.140,5.496,13.802,-23.115
0.281,0.939,0.145,4.504,11.962,-22.824
0.290,0.945,0.142,3.023,10.603,-21.962
0.287,0.947,0.143,1.908,10.939,-20.763
0.282,0.949,0.141,1.031,10.511,-19.962
0.276,0.943,0.142,0.206,9.611,-19.000
0.281,0.941,0.142,0.008,8.466,-18.176
0.274,0.942,0.135,0.008,7.901,-17.084
0.281,0.935,0.139,0.939,8.534,-15.969
0.281,0.932,0.143,2.023,9.641,-15.069
0.288,0.938,0.133,3.244,10.046,-14.305
0.283,0.935,0.135,4.305,9.771,-14.687
0.282,0.937,0.128,4.748,7.931,-15.061
0.284,0.938,0.126,3.939,5.573,-14.802
0.283,0.944,0.123,2.985,4.282,-14.198
0.278,0.937,0.123,1.809,4.786,-13.908
0.277,0.929,0.115,0.336,4.748,-14.107
0.268,0.934,0.120,-1.191,3.672,-14.481
0.274,0.933,0.113,-2.924,5.298,-14.000
0.269,0.938,0.121,-4.618,8.313,-13.427
0.271,0.945,0.131,-6.328,11.458,-12.313
0.266,0.947,0.137,-8.229,13.023,-11.153
0.254,0.938,0.152,-9.809,12.809,-10.130
0.255,0.939,0.167,-11.176,11.107,-9.443
0.264,0.946,0.175,-12.748,7.969,-9.351
0.262,0.941,0.183,-13.290,5.969,-10.405
0.261,0.943,0.202,-13.489,4.939,-11.725
0.265,0.950,0.201,-12.969,5.611,-12.611

-0.517,1.280,0.077,23.137,76.221,-28.794
-0.910,1.343,0.088,30.458,96.550,-8.527
-1.225,1.360,0.161,24.855,90.473,42.969
-1.459,1.225,0.249,1.458,58.290,123.916
-1.456,1.135,0.264,-25.328,18.550,240.618
-1.342,1.009,0.201,-39.710,-18.985,250.130
-1.295,0.847,0.264,-45.924,-65.374,250.130
-0.987,0.485,0.244,-47.000,-126.557,250.130
-0.514,0.278,0.126,-35.321,-160.939,250.130
0.023,0.081,-0.009,-16.641,-149.183,250.130
0.510,-0.024,-0.084,-4.153,-99.092,250.130
0.957,-0.069,-0.050,-1.786,-39.069,250.130
1.271,-0.136,0.019,-3.260,-1.580,250.130
1.583,-0.148,0.050,-3.603,10.344,250.130
1.782,-0.132,0.097,-1.931,9.992,250.130
1.907,-0.109,0.131,1.611,5.183,250.130
1.921,-0.082,0.165,4.641,-0.885,187.733
1.875,-0.059,0.168,8.313,-8.206,119.786
1.825,-0.042,0.159,12.985,-10.511,57.634
1.764,-0.000,0.144,16.580,-7.534,6.450
1.667,0.044,0.130,19.122,7.893,-33.809
1.533,0.080,0.134,20.672,23.885,-64.420
1.394,0.107,0.154,21.008,34.221,-85.458
1.293,0.141,0.169,19.565,37.389,-103.573
1.235,0.169,0.181,16.595,35.290,-115.771
1.167,0.198,0.181,14.313,31.267,-127.023
1.098,0.208,0.166,13.718,25.000,-136.214
1.045,0.232,0.146,13.840,22.008,-143.153
0.996,0.267,0.149,13.008,20.863,-147.542
0.939,0.321,0.154,10.771,20.763,-148.145
0.896,0.304,0.157,8.733,20.985,-148.573
0.875,0.377,0.136,5.145,17.031,-144.847
0.831,0.386,0.141,2.374,11.092,-139.672
0.828,0.407,0.118,1.565,7.679,-135.435
0.816,0.436,0.108,2.046,5.427,-131.824
0.809,0.466,0.110,1.695,3.550,-127.832
0.793,0.501,0.099,0.229,0.702,-125.817
0.781,0.524,0.100,-1.855,0.221,-126.221
0.755,0.548,0.083,-4.046,-0.519,-128.260
0.738,0.577,0.068,-5.107,1.847,-130.076
0.723,0.617,0.071,-6.794,7.466,-130.489
0.673,0.639,0.109,-9.542,5.924,-129.985
0.637,0.666,0.114,-12.931,0.084,-128.977
0.596,0.696,0.109,-14.771,-3.252,-126.916
0.563,0.721,0.105,-15.588,-1.137,-124.176
0.524,0.744,0.129,-16.809,-0.466,-120.634
0.504,0.759,0.131,-18.328,-0.405,-116.351
0.477,0.781,0.141,-19.611,-0.069,-113.267
0.454,0.797,0.159,-20.588,0.756,-110.321
0.426,0.820,0.170,-20.664,1.137,-107.405
0.399,0.836,0.166,-19.435,3.496,-104.908
0.383,0.851,0.191,-17.420,6.130,-101.748
0.366,0.856,0.190,-15.580,7.924,-97.947
0.348,0.868,0.200,-13.847,9.924,-93.595
0.333,0.881,0.193,-12.771,11.802,-88.466
0.320,0.889,0.213,-11.779,13.817,-83.710
0.317,0.892,0.219,-11.679,15.267,-80.504
0.319,0.899,0.216,-10.748,14.985,-76.855
0.319,0.902,0.231,-8.817,15.397,-73.649
0.307,0.902,0.242,-6.435,14.763,-71.328
0.294,0.905,0.233,-4.473,13.122,-69.763
0.283,0.920,0.244,-2.794,11.137,-69.000
0.272,0.906,0.233,-1.183,8.794,-67.954
0.278,0.908,0.218,0.145,8.321,-65.756
0.277,0.916,0.207,1.374,9.206,-64.122
0.275,0.913,0.203,2.305,11.275,-62.298
0.273,0.918,0.194,3.763,13.137,-61.481
0.271,0.917,0.203,4.519,13.611,-61.550
0.257,0.914,0.197,5.031,12.908,-62.076
0.253,0.917,0.195,5.374,11.702,-63.031
0.246,0.924,0.187,5.443,11.443,-63.954
0.225,0.926,0.171,5.290,12.267,-64.107
0.209,0.930,0.166,4.534,13.847,-64.115
0.207,0.936,0.154,3.672,16.099,-63.504
0.198,0.940,0.158,3.458,18.534,-62.481
0.173,0.947,0.154,3.466,20.824,-61.389
0.162,0.962,0.155,3.695,21.855,-60.221
0.147,0.958,0.158,4.206,23.214,-58.000
0.129,0.971,0.171,3.580,23.992,-54.534
0.102,0.973,0.163,2.695,24.649,-50.565
0.085,0.988,0.167,1.366,23.031,-46.687
0.083,0.986,0.175,0.718,22.252,-41.267
0.073,0.977,0.179,0.595,21.328,-34.763
0.065,0.980,0.191,0.191,19.252,-28.534
0.072,0.985,0.192,-0.145,17.084,-24.420
0.076,0.975,0.190,-0.527,15.656,-21.435
0.087,0.974,0.194,-0.557,15.832,-19.191
0.093,0.992,0.194,-0.473,15.977,-18.137
0.078,0.974,0.202,-0.069,14.382,-17.817
0.073,0.979,0.211,0.008,9.206,-16.962
0.077,0.977,0.187,0.855,5.885,-15.740
0.076,0.974,0.198,1.824,5.214,-14.099
0.085,0.980,0.180,2.427,4.542,-11.290
0.088,0.972,0.184,2.328,3.992,-8.702
0.101,0.975,0.182,2.107,4.733,-7.160
0.104,0.961,0.177,1.611,5.427,-5.947
0.115,0.964,0.177,1.160,4.565,-6.008
0.119,0.963,0.177,0.718,3.496,-6.702
0.123,0.964,0.175,0.282,3.290,-7.519
0.125,0.968,0.168,0.069,3.603,-7.962
0.122,0.954,0.171,-0.374,4.534,-8.366
0.123,0.957,0.163,-0.641,6.374,-8.748
0.122,0.959,0.167,-1.122,8.328,-9.099
0.123,0.966,0.165,-1.580,9.565,-8.985
0.119,0.963,0.173,-1.672,10.313,-8.427
0.116,0.965,0.173,-1.840,11.779,-7.809
0.122,0.960,0.184,-2.115,10.969,-7.733
0.116,0.957,0.191,-2.763,9.122,-7.550
0.112,0.959,0.193,-3.076,7.298,-7.595
0.116,0.957,0.189,-3.328,6.809,-7.435
0.117,0.967,0.190,-3.573,7.420,-6.977
0.121,0.969,0.186,-3.802,7.809,-6.580
0.119,0.963,0.195,-3.237,7.947,-6.084
0.125,0.965,0.210,-2.573,7.427,-6.107
0.110,0.957,0.206,-2.351,6.672,-6.137
0.110,0.963,0.199,-2.046,5.305,-6.550
0.104,0.963,0.204,-1.656,4.176,-6.145
0.096,0.966,0.197,-1.458,3.405,-5.527
0.091,0.968,0.200,-1.405,3.275,-5.015

-0.392,1.191,0.279,28.405,33.504,40.099
-0.584,1.261,0.301,30.748,41.527,61.267
-0.758,1.263,0.361,32.466,37.466,94.267
-0.934,1.209,0.377,36.015,23.443,140.000
-1.016,1.104,0.378,39.985,9.153,193.298
-1.066,0.950,0.380,43.931,-11.252,250.130
-1.072,0.776,0.410,45.092,-41.824,250.130
-0.958,0.709,0.397,46.198,-77.809,250.130
-0.761,0.511,0.342,52.481,-116.115,250.130
-0.497,0.253,0.259,67.443,-159.763,250.130
-0.100,0.040,0.101,89.198,-182.901,250.130
0.325,-0.126,-0.072,110.099,-173.557,250.130
0.859,-0.165,-0.279,123.099,-144.473,250.130
1.403,-0.153,-0.398,119.656,-63.466,250.130
1.735,-0.235,-0.641,93.397,26.061,250.130
1.930,-0.297,-0.615,54.840,72.771,250.130
1.967,-0.358,-0.522,18.466,94.137,250.130
2.000,-0.346,-0.380,-12.015,67.878,220.191
2.000,-0.342,-0.321,-36.573,13.756,81.260
2.000,-0.382,-0.355,-49.924,-9.267,-26.275
2.000,-0.352,-0.375,-54.099,6.420,-101.511
1.780,-0.275,-0.261,-54.290,22.588,-157.832
1.490,-0.176,-0.149,-50.947,30.947,-197.153
1.265,-0.068,-0.047,-44.687,36.824,-221.786
1.086,0.006,0.042,-37.618,45.282,-231.511
0.971,0.075,0.091,-29.763,48.473,-231.359
0.878,0.160,0.136,-19.969,48.794,-224.710
0.774,0.210,0.191,-10.756,46.534,-214.557
0.764,0.273,0.115,-6.405,40.863,-204.229
0.756,0.388,0.164,-8.672,28.443,-194.313
0.700,0.447,0.173,-15.534,18.809,-186.511
0.674,0.495,0.144,-24.137,10.527,-178.267
0.658,0.516,0.138,-31.702,5.794,-169.931
0.656,0.548,0.105,-37.160,6.855,-159.962
0.666,0.568,0.102,-38.649,14.611,-146.649
0.660,0.589,0.084,-36.237,28.611,-133.603
0.644,0.602,0.119,-34.534,33.954,-122.420
0.646,0.632,0.150,-34.160,31.511,-114.015
0.658,0.649,0.147,-34.092,24.183,-106.977
0.662,0.659,0.159,-33.786,19.916,-102.870
0.662,0.684,0.187,-35.313,10.000,-101.008
0.660,0.686,0.186,-37.725,-2.481,-100.298
0.659,0.700,0.156,-38.534,-6.336,-101.237
0.649,0.707,0.146,-37.282,-2.908,-104.084
0.635,0.708,0.129,-34.710,3.885,-107.496
0.598,0.733,0.134,-31.473,13.160,-112.519
0.560,0.759,0.156,-28.779,19.122,-117.008
0.509,0.774,0.178,-24.985,24.931,-120.626
0.483,0.789,0.207,-21.076,27.611,-121.374
0.458,0.788,0.212,-17.092,26.366,-120.412
0.441,0.813,0.205,-13.015,25.603,-119.702
0.423,0.827,0.190,-9.618,27.359,-119.466
0.409,0.832,0.178,-5.718,29.969,-119.298
0.372,0.847,0.187,-2.679,31.786,-119.885
0.339,0.865,0.190,-0.573,34.427,-120.786
0.311,0.878,0.185,1.519,37.786,-121.458
0.271,0.906,0.182,2.901,41.672,-121.290
0.221,0.901,0.178,3.679,41.267,-119.267
0.183,0.927,0.186,2.779,33.916,-114.679
0.181,0.970,0.155,3.779,33.656,-109.954
0.161,0.969,0.163,7.954,41.466,-101.969
0.127,0.966,0.176,13.145,47.191,-91.160
0.111,0.967,0.191,16.237,46.038,-81.344
0.090,0.971,0.191,17.656,40.099,-69.168
0.083,0.979,0.196,16.359,33.481,-60.198
0.089,0.996,0.192,12.878,27.794,-50.885
0.101,1.009,0.180,9.397,25.145,-43.779
0.106,1.005,0.187,5.496,22.405,-36.473
0.107,1.000,0.193,3.115,19.588,-30.061
0.118,0.990,0.194,1.031,17.305,-24.313
0.137,0.982,0.185,0.527,14.870,-19.840
0.140,0.973,0.194,1.267,14.214,-17.718
0.147,0.963,0.181,3.038,16.679,-18.504
0.154,0.963,0.187,4.427,19.397,-19.771
0.153,0.954,0.192,5.313,20.023,-21.267
0.154,0.957,0.187,5.534,21.214,-23.893
0.153,0.961,0.189,5.496,20.855,-26.130
0.167,0.962,0.179,5.221,19.885,-27.687
0.167,0.955,0.189,5.466,18.794,-27.885
0.163,0.950,0.183,5.977,17.939,-27.832
0.157,0.948,0.179,5.901,15.519,-28.366
0.145,0.950,0.186,3.229,7.458,-28.718
0.157,0.953,0.174,1.672,4.931,-30.595
0.165,0.957,0.167,-0.290,5.802,-33.061
0.149,0.947,0.167,-1.878,5.863,-35.130
0.141,0.953,0.163,-3.321,4.702,-36.443
0.144,0.947,0.173,-5.214,3.634,-36.496
0.145,0.942,0.160,-6.450,3.321,-36.985
0.147,0.942,0.169,-8.038,1.573,-37.573
0.149,0.944,0.166,-8.954,0.695,-38.847
0.128,0.949,0.172,-9.023,1.015,-41.008
0.122,0.952,0.186,-8.763,1.427,-42.595
0.101,0.960,0.185,-8.351,-0.145,-43.466
0.073,0.972,0.193,-8.489,-3.550,-42.313
0.065,0.979,0.201,-8.832,-5.290,-40.313
0.052,0.979,0.193,-9.924,-7.275,-37.000
0.022,0.991,0.200,-13.954,-16.748,-32.679
0.044,0.996,0.173,-14.214,-13.267,-31.153
0.040,0.997,0.168,-11.710,1.908,-29.336
0.033,0.983,0.213,-11.527,4.779,-23.740
0.029,0.985,0.221,-11.427,1.053,-18.840
0.025,0.974,0.221,-10.099,0.176,-16.313
0.035,0.979,0.220,-7.443,-0.427,-15.176
0.026,0.971,0.233,-5.641,-1.557,-14.573
0.027,0.975,0.231,-3.740,-1.901,-13.580
0.016,0.972,0.227,-1.527,-1.527,-12.763
0.014,0.984,0.222,0.198,-1.511,-12.015
0.014,0.973,0.210,1.527,-1.076,-10.496
0.014,0.972,0.218,2.641,-0.947,-8.008
0.021,0.974,0.218,3.099,-1.557,-5.718
0.028,0.970,0.213,2.908,-2.740,-5.046
0.037,0.968,0.204,2.244,-4.672,-5.076
0.040,0.962,0.199,1.855,-3.359,-5.466
0.040,0.957,0.196,2.046,-2.168,-6.580
0.051,0.964,0.187,2.214,-0.870,-7.458
0.042,0.960,0.176,2.336,0.435,-8.076
0.039,0.973,0.176,2.099,1.191,-7.756
0.043,0.960,0.178,1.794,2.023,-6.802
0.051,0.957,0.184,1.313,2.557,-5.656

-0.323,1.180,0.321,19.214,35.603,-22.832
-0.565,1.266,0.452,42.519,59.969,-8.924
-0.942,1.349,0.595,72.557,73.542,16.893
-1.258,1.325,0.707,105.672,82.267,68.687
-1.428,1.281,0.758,132.672,87.748,149.237
-1.516,1.180,0.760,156.542,88.489,250.130
-1.522,1.047,0.818,174.847,39.885,250.130
-1.352,0.735,0.762,185.359,-63.038,250.130
-0.908,0.458,0.472,193.878,-185.473,250.130
-0.407,0.279,0.021,197.649,-250.137,250.130
0.058,0.152,-0.418,194.008,-250.137,250.130
0.519,0.052,-0.834,181.313,-219.351,250.130
0.855,-0.016,-1.035,156.611,-151.794,250.130
1.194,-0.042,-1.185,121.336,-70.626,250.130
1.453,-0.056,-1.219,72.893,7.908,250.130
1.603,-0.076,-1.129,26.969,57.496,250.130
1.650,-0.082,-0.956,-26.298,62.733,204.481
1.691,-0.069,-0.863,-64.015,55.634,117.748
1.666,-0.040,-0.737,-82.962,54.863,46.351
1.567,0.017,-0.604,-86.809,59.076,-8.229
1.417,0.060,-0.505,-80.168,63.389,-47.282
1.275,0.124,-0.394,-69.275,65.656,-77.702
1.131,0.204,-0.292,-56.802,69.687,-103.305
1.010,0.302,-0.221,-47.618,72.023,-118.580
0.904,0.398,-0.166,-39.885,70.450,-128.695
0.836,0.474,-0.132,-34.183,68.107,-131.275
0.778,0.548,-0.100,-30.771,63.870,-128.389
0.746,0.607,-0.072,-31.298,53.947,-122.855
0.722,0.646,-0.121,-36.595,43.595,-116.824
0.725,0.676,-0.050,-45.519,35.145,-112.168
0.733,0.718,-0.071,-57.626,29.412,-108.466
0.710,0.720,-0.036,-69.809,26.229,-106.641
0.694,0.711,-0.006,-79.298,26.183,-107.191
0.683,0.726,0.039,-87.275,29.366,-108.260
0.663,0.710,0.069,-90.198,35.779,-105.855
0.646,0.700,0.098,-87.038,43.145,-101.779
0.641,0.695,0.137,-80.992,44.450,-98.443
0.627,0.703,0.183,-74.519,40.672,-97.137
0.622,0.719,0.209,-67.771,34.221,-97.481
0.615,0.739,0.221,-61.656,26.550,-100.481
0.599,0.758,0.212,-55.229,20.786,-105.939
0.560,0.767,0.218,-48.664,17.389,-112.595
0.523,0.793,0.219,-42.733,16.046,-119.328
0.486,0.821,0.215,-37.527,17.817,-124.664
0.437,0.831,0.209,-31.679,21.824,-129.122
0.392,0.856,0.217,-26.015,26.420,-131.672
0.325,0.887,0.240,-21.519,29.763,-132.557
0.276,0.904,0.232,-17.931,28.695,-131.794
0.225,0.917,0.238,-14.924,22.473,-129.710
0.180,0.924,0.244,-11.366,13.183,-126.710
0.153,0.936,0.243,-7.176,6.107,-122.748
0.127,0.959,0.239,-3.336,2.496,-118.099
0.093,0.974,0.237,-0.511,-0.603,-112.809
0.066,0.989,0.225,1.733,-2.840,-105.779
0.058,0.998,0.207,3.573,-4.130,-97.649
0.056,0.995,0.181,5.015,-1.580,-90.000
0.060,1.012,0.175,6.763,3.519,-82.160
0.051,1.005,0.160,8.115,9.985,-75.473
0.025,1.006,0.152,7.679,13.130,-71.168
0.017,1.005,0.139,5.359,12.595,-67.412
0.023,1.004,0.130,1.641,8.626,-64.160
0.039,1.001,0.110,-2.405,6.389,-60.748
0.052,0.989,0.092,-6.740,4.870,-57.634
0.071,0.983,0.086,-10.832,4.908,-55.496
0.076,0.977,0.084,-15.160,6.992,-54.344
0.075,0.969,0.102,-19.618,6.176,-55.344
0.079,0.970,0.105,-24.275,5.374,-58.374
0.069,0.959,0.115,-28.443,5.435,-61.489
0.071,0.954,0.109,-32.023,5.046,-63.855
0.061,0.947,0.108,-35.458,6.305,-65.901
0.054,0.933,0.110,-39.687,7.504,-67.282
0.046,0.932,0.109,-44.427,7.664,-67.489
0.042,0.924,0.106,-48.695,8.626,-68.046
0.029,0.942,0.115,-51.466,11.573,-69.687
-0.000,0.936,0.136,-52.962,16.046,-70.779
-0.022,0.941,0.148,-53.626,18.626,-70.832
-0.061,0.952,0.169,-53.763,19.740,-69.626
-0.095,0.967,0.199,-53.519,19.901,-66.397
-0.132,0.984,0.209,-53.015,18.557,-61.359
-0.144,0.989,0.224,-52.061,18.824,-53.962
-0.160,0.989,0.242,-50.656,19.527,-45.076
-0.183,0.985,0.255,-48.626,20.802,-34.427
-0.177,0.984,0.261,-45.763,21.282,-21.794
-0.196,0.984,0.281,-42.947,21.069,-11.122
-0.186,0.980,0.298,-39.160,20.237,0.504
-0.185,0.970,0.316,-35.221,16.824,8.580
-0.166,0.964,0.323,-31.656,14.718,14.771
-0.148,0.956,0.338,-28.557,14.565,19.267
-0.132,0.946,0.350,-24.611,12.412,21.504
-0.119,0.940,0.362,-20.504,8.015,21.664
-0.093,0.934,0.379,-16.420,5.176,19.954
-0.081,0.921,0.359,-12.649,2.634,17.611
-0.060,0.905,0.369,-9.397,3.115,13.687
-0.044,0.909,0.358,-6.840,3.427,8.244
-0.033,0.906,0.359,-4.527,4.458,1.595
-0.031,0.902,0.353,-1.916,3.053,-4.137
-0.022,0.907,0.321,1.893,2.740,-9.366
-0.014,0.897,0.319,5.145,5.931,-11.992
-0.027,0.917,0.323,8.481,9.664,-14.550
-0.042,0.906,0.337,11.344,10.733,-17.130
-0.054,0.917,0.326,14.824,9.450,-19.298
-0.074,0.925,0.319,18.458,7.420,-20.099
-0.069,0.945,0.328,21.611,4.687,-19.878
-0.089,0.947,0.323,25.168,4.901,-17.931
-0.125,0.953,0.323,28.153,1.359,-15.435
-0.129,0.947,0.335,30.473,-5.115,-11.389
-0.132,0.958,0.313,32.947,-12.153,-6.603
-0.132,0.943,0.311,35.290,-13.344,-2.336
-0.134,0.949,0.304,37.069,-16.336,2.534
-0.130,0.943,0.300,37.840,-18.092,7.931
-0.124,0.951,0.302,37.756,-19.534,11.885
-0.110,0.953,0.278,37.084,-20.687,14.725
-0.101,0.951,0.269,35.817,-21.580,17.092
-0.084,0.968,0.253,34.145,-23.420,18.313
-0.063,0.973,0.237,32.504,-22.519,19.695
-0.042,0.958,0.207,30.397,-17.473,21.351
-0.029,0.963,0.192,28.695,-13.557,22.237
-0.013,0.963,0.170,26.382,-11.275,21.328
-0.023,0.958,0.173,23.557,-9.771,18.954

-0.356,1.122,0.367,-11.878,38.588,-15.733
-0.590,1.231,0.410,-10.969,57.076,-16.779
-0.906,1.288,0.524,-0.557,56.511,-1.733
-1.245,1.139,0.637,18.992,39.786,31.679
-1.337,1.109,0.641,40.000,25.870,80.924
-1.335,1.028,0.584,72.878,34.626,171.870
-1.376,1.097,0.616,101.511,20.710,250.130
-1.327,0.859,0.604,119.260,-3.061,250.130
-1.114,0.638,0.577,128.374,-57.847,250.130
-0.815,0.406,0.442,141.908,-117.397,250.130
-0.451,0.282,0.252,157.321,-160.473,250.130
-0.067,0.116,0.055,167.733,-172.725,250.130
0.298,0.023,-0.159,167.695,-174.962,250.130
0.725,-0.060,-0.379,154.786,-161.588,250.130
1.093,-0.070,-0.605,130.099,-125.160,250.130
1.479,-0.047,-0.783,98.664,-63.794,250.130
1.741,-0.014,-0.852,66.336,1.908,250.130
1.824,-0.036,-0.801,37.092,44.748,250.130
1.806,-0.040,-0.666,13.595,52.038,216.573
1.809,-0.034,-0.559,-12.321,33.695,122.191
1.805,0.003,-0.469,-34.611,5.924,19.031
1.781,0.008,-0.490,-44.679,3.069,-48.977
1.704,0.034,-0.472,-48.740,20.092,-97.183
1.552,0.075,-0.384,-49.565,43.504,-132.176
1.383,0.131,-0.279,-48.885,58.069,-158.656
1.197,0.188,-0.173,-45.550,62.473,-182.221
1.069,0.235,-0.097,-40.634,60.511,-198.130
0.967,0.282,-0.042,-36.168,60.550,-207.000
0.867,0.345,-0.064,-33.092,64.634,-212.031
0.788,0.425,0.003,-32.954,65.366,-216.527
0.671,0.493,0.054,-36.038,66.336,-217.649
0.598,0.571,0.114,-40.855,55.611,-215.168
0.560,0.612,0.153,-45.962,38.756,-208.084
0.531,0.665,0.135,-48.344,25.550,-199.321
0.508,0.704,0.126,-48.725,22.023,-189.511
0.469,0.741,0.119,-47.458,23.863,-175.588
0.433,0.776,0.137,-46.641,27.748,-161.641
0.417,0.809,0.149,-47.023,27.969,-148.802
0.396,0.822,0.180,-47.481,24.137,-134.939
0.378,0.841,0.183,-47.313,18.137,-123.672
0.351,0.856,0.195,-46.076,12.344,-115.527
0.322,0.879,0.221,-45.000,5.427,-108.137
0.303,0.898,0.218,-42.824,-0.733,-100.802
0.286,0.911,0.227,-38.275,-2.511,-91.985
0.255,0.917,0.229,-33.458,-3.053,-85.779
0.231,0.917,0.233,-27.870,-5.702,-78.244
0.207,0.908,0.230,-22.969,-10.336,-72.748
0.189,0.898,0.223,-16.969,-17.229,-66.756
0.192,0.904,0.227,-11.351,-21.435,-61.305
0.186,0.909,0.217,-6.771,-15.763,-58.466
0.177,0.941,0.214,-6.099,-12.763,-60.939
0.159,0.971,0.208,-9.412,-11.634,-65.649
0.150,0.990,0.173,-13.122,-8.252,-69.618
0.130,0.989,0.145,-14.924,0.382,-72.863
0.115,1.008,0.146,-16.519,10.466,-72.832
0.090,1.015,0.144,-18.099,18.008,-70.817
0.066,0.999,0.151,-19.229,22.420,-67.763
0.049,0.992,0.165,-19.870,21.435,-62.840
0.045,1.020,0.153,-18.908,18.443,-57.115
0.038,0.991,0.166,-17.466,19.962,-51.168
0.031,1.000,0.169,-16.893,18.298,-44.351
0.036,1.008,0.176,-17.756,13.664,-38.267
0.035,0.994,0.179,-19.511,11.069,-33.870
0.061,1.000,0.177,-21.183,10.489,-29.863
0.067,0.970,0.182,-22.748,12.275,-25.756
0.094,0.994,0.167,-23.298,16.008,-22.756
0.091,1.014,0.177,-22.847,18.779,-22.069
0.106,0.993,0.192,-22.977,19.504,-22.107
0.120,1.012,0.187,-19.885,24.092,-23.244
0.128,0.979,0.214,-17.061,31.466,-24.244
0.103,0.972,0.229,-14.389,32.130,-23.321
0.117,0.988,0.228,-12.863,31.466,-22.412
0.126,0.949,0.223,-11.275,36.977,-21.229
0.106,0.950,0.244,-10.924,40.412,-20.260
0.120,1.043,0.225,-10.137,37.802,-18.321
0.131,0.981,0.205,-9.137,41.687,-16.725
0.095,0.917,0.216,-9.061,49.443,-13.275
0.077,0.971,0.232,-7.733,44.435,-9.985
0.076,0.948,0.238,-6.504,42.573,-7.443
0.061,0.954,0.245,-4.962,41.160,-6.397
0.065,0.919,0.253,-4.000,37.809,-5.511
0.036,0.869,0.282,-4.412,31.557,-4.298
0.034,0.876,0.298,-5.336,19.702,-4.275
0.029,0.875,0.295,-6.198,9.672,-5.427
0.067,0.977,0.287,-5.664,-3.824,-7.542
0.081,0.975,0.269,-4.534,-8.313,-11.160
0.092,0.953,0.250,-3.191,-9.351,-13.962
0.114,0.958,0.240,-1.031,-5.153,-15.885
0.117,0.951,0.240,1.282,0.145,-18.359
0.107,0.944,0.247,2.122,1.748,-21.298
0.091,0.930,0.254,2.206,1.160,-24.618
0.100,0.934,0.258,0.908,-0.275,-27.878
0.095,0.924,0.270,-1.450,-4.450,-31.580
0.080,0.932,0.254,-3.527,-11.237,-36.954
0.093,0.934,0.241,-4.153,-13.008,-41.931
0.089,0.944,0.223,-4.000,-12.519,-45.802
0.073,0.945,0.220,-3.718,-8.557,-47.405
0.057,0.947,0.229,-3.275,-4.214,-47.160
0.028,0.951,0.218,-2.489,-3.298,-45.687
0.022,0.946,0.218,-1.473,-4.397,-43.794
0.004,0.956,0.225,-0.290,-3.504,-42.015
-0.000,0.951,0.234,-0.107,-2.702,-39.168
-0.007,0.959,0.242,-1.420,-4.191,-36.229
-0.003,0.969,0.235,-3.496,-6.389,-34.237
0.000,0.964,0.240,-4.779,-7.496,-32.427
-0.010,0.963,0.235,-5.130,-7.550,-31.817
-0.008,0.952,0.243,-5.443,-8.427,-32.214
-0.008,0.958,0.240,-5.427,-8.725,-33.313
-0.020,0.952,0.244,-5.198,-7.504,-34.992
-0.035,0.954,0.232,-4.496,-6.557,-35.779
-0.045,0.955,0.243,-6.061,-8.328,-35.351
-0.042,0.964,0.220,-6.687,-9.878,-35.550
-0.030,0.962,0.224,-7.099,-4.214,-34.641
-0.031,0.957,0.237,-7.840,0.427,-32.176
-0.061,0.946,0.230,-9.122,0.069,-28.489
-0.055,0.945,0.240,-9.969,-1.847,-24.588
-0.060,0.963,0.238,-10.092,-0.992,-21.947
-0.089,0.955,0.253,-9.725,-0.847,-21.053
-0.090,0.961,0.262,-8.870,-2.603,-19.313

-0.362,1.112,0.365,21.962,24.992,-6.885
-0.520,1.136,0.403,22.145,33.328,3.015
-0.713,1.216,0.454,23.275,38.374,22.573
-0.946,1.253,0.531,27.351,29.870,55.542
-1.138,1.253,0.568,34.099,20.237,99.397
-1.305,1.235,0.548,44.466,13.649,148.275
-1.456,1.129,0.577,60.573,11.985,211.924
-1.517,1.008,0.574,79.916,9.740,250.130
-1.411,0.865,0.557,99.130,1.756,250.130
-1.320,0.657,0.579,107.260,-25.145,250.130
-0.974,0.392,0.509,112.527,-74.412,250.130
-0.517,0.167,0.301,121.427,-125.588,250.130
-0.115,0.071,0.116,128.916,-146.176,250.130
0.302,0.031,-0.085,133.084,-142.298,250.130
0.712,-0.027,-0.261,133.053,-108.939,250.130
1.099,-0.025,-0.390,123.221,-62.649,250.130
1.365,-0.056,-0.468,107.130,-26.298,250.130
1.565,-0.054,-0.491,87.336,-2.084,250.130
1.728,-0.043,-0.479,65.885,11.206,250.130
1.797,-0.046,-0.503,46.069,16.573,236.573
1.849,-0.060,-0.490,29.763,22.687,155.702
1.905,-0.001,-0.454,12.710,17.214,75.679
1.894,0.027,-0.419,-5.214,6.794,-6.412
1.826,0.050,-0.402,-19.260,11.649,-74.664
1.671,0.098,-0.343,-29.153,27.771,-129.053
1.467,0.142,-0.246,-35.069,40.053,-167.794
1.281,0.195,-0.152,-38.626,43.885,-194.832
1.133,0.231,-0.096,-39.832,46.206,-212.649
1.041,0.277,-0.172,-38.947,48.832,-221.962
0.874,0.293,0.012,-37.916,51.069,-224.611
0.803,0.397,0.033,-38.504,48.832,-223.527
0.703,0.437,0.048,-41.130,47.176,-221.153
0.605,0.522,0.080,-47.061,42.282,-219.450
0.531,0.598,0.115,-53.168,38.092,-217.511
0.468,0.669,0.130,-58.252,36.023,-211.038
0.408,0.737,0.136,-59.000,34.794,-198.840
0.366,0.779,0.171,-54.802,38.763,-182.763
0.332,0.822,0.206,-47.595,37.947,-162.947
0.309,0.846,0.241,-41.244,31.626,-142.267
0.289,0.872,0.276,-34.649,21.023,-122.168
0.256,0.893,0.290,-29.649,8.252,-104.695
0.241,0.915,0.293,-25.893,-4.092,-89.511
0.230,0.941,0.287,-24.450,-12.305,-79.046
0.212,0.954,0.305,-23.878,-19.298,-68.260
0.222,0.962,0.288,-22.855,-26.298,-57.771
0.212,0.981,0.275,-21.618,-28.550,-49.718
0.209,0.994,0.265,-20.092,-28.962,-43.305
0.198,0.982,0.249,-18.641,-28.924,-37.282
0.208,0.968,0.240,-17.763,-29.206,-31.802
0.207,0.978,0.250,-17.740,-28.450,-28.015
0.210,0.977,0.238,-17.779,-27.527,-26.191
0.203,0.964,0.232,-18.366,-26.595,-26.137
0.196,0.953,0.263,-19.443,-26.954,-28.130
0.179,0.923,0.260,-21.305,-29.290,-31.893
0.183,0.888,0.242,-22.000,-34.168,-36.198
0.174,0.923,0.230,-19.290,-46.550,-40.122
0.211,0.951,0.241,-14.824,-53.962,-41.366
0.255,0.978,0.217,-6.817,-54.504,-41.924
0.264,1.001,0.183,2.710,-43.802,-40.458
0.267,0.992,0.169,10.740,-29.603,-38.069
0.257,0.984,0.155,17.260,-17.420,-35.336
0.246,0.969,0.152,21.977,-8.221,-32.702
0.237,0.943,0.138,25.725,0.443,-30.359
0.232,0.940,0.122,28.656,6.282,-29.504
0.222,0.930,0.119,29.557,8.145,-30.053
0.221,0.927,0.097,28.519,5.924,-31.672
0.223,0.937,0.076,26.145,0.550,-34.229
0.235,0.942,0.060,23.344,-4.061,-36.282
0.240,0.956,0.032,18.931,-5.298,-38.023
0.245,0.960,0.008,13.473,-1.565,-39.229
0.250,0.958,0.004,7.076,2.969,-39.611
0.244,0.953,0.008,-0.672,6.656,-39.733
0.236,0.956,0.021,-8.374,8.298,-40.458
0.225,0.953,0.019,-15.305,9.687,-41.824
0.220,0.953,0.024,-21.328,12.656,-43.832
0.212,0.943,0.038,-25.786,16.298,-44.733
0.198,0.940,0.059,-27.870,17.176,-44.504
0.189,0.961,0.076,-28.046,18.107,-43.550
0.187,0.945,0.102,-27.221,18.786,-42.321
0.173,0.948,0.137,-26.580,17.893,-41.534
0.171,0.947,0.156,-27.145,16.000,-41.901
0.162,0.947,0.159,-28.053,15.473,-43.489
0.163,0.960,0.165,-28.305,15.305,-45.977
0.140,0.958,0.184,-27.115,17.008,-47.427
0.125,0.956,0.184,-24.481,17.237,-47.221
0.109,0.960,0.189,-21.168,16.916,-46.053
0.098,0.966,0.199,-17.344,15.450,-44.298
0.091,0.969,0.203,-14.038,15.412,-42.557
0.084,0.968,0.208,-11.344,14.443,-40.061
0.078,0.963,0.216,-9.756,10.405,-37.779
0.080,0.958,0.223,-9.107,6.847,-35.954
0.077,0.963,0.205,-8.336,4.298,-34.985
0.084,0.966,0.205,-8.130,3.275,-35.466
0.074,0.953,0.206,-8.061,2.779,-36.656
0.069,0.954,0.208,-8.031,2.275,-37.763
0.055,0.965,0.206,-7.725,2.176,-39.038
0.052,0.966,0.197,-7.145,2.649,-39.466
0.047,0.969,0.201,-6.702,3.962,-39.076
0.043,0.979,0.197,-6.099,4.947,-38.099
0.034,0.967,0.192,-5.214,5.740,-36.229
0.029,0.966,0.191,-4.748,6.481,-35.046
0.015,0.961,0.190,-4.618,6.450,-34.084
0.012,0.966,0.200,-4.527,6.656,-34.260
-0.007,0.972,0.197,-5.137,6.992,-33.817
-0.013,0.977,0.191,-5.748,7.099,-32.924
-0.017,0.978,0.203,-5.977,6.031,-30.863
-0.017,0.978,0.199,-6.023,6.069,-28.366
-0.024,0.971,0.208,-5.817,5.137,-26.427
-0.012,0.969,0.208,-6.130,3.015,-24.580
-0.016,0.970,0.207,-6.496,2.252,-23.359
-0.011,0.960,0.198,-6.611,2.740,-23.557
-0.019,0.953,0.200,-6.679,3.115,-24.489
-0.019,0.965,0.204,-6.473,2.588,-25.771
-0.029,0.966,0.188,-6.031,4.580,-26.504
-0.035,0.969,0.208,-5.313,7.206,-26.733
-0.040,0.966,0.201,-5.305,8.282,-25.992
-0.044,0.966,0.201,-5.840,8.405,-24.328
-0.042,0.964,0.204,-6.191,7.000,-22.611
-0.049,0.956,0.209,-6.405,4.176,-21.718

-0.451,1.083,0.309,21.573,60.878,-2.817
-0.660,1.189,0.378,28.076,86.069,-3.305
-0.930,1.192,0.455,37.076,97.802,5.191
-1.107,1.168,0.489,48.664,94.565,32.092
-1.192,1.096,0.459,63.496,97.145,88.260
-1.313,1.133,0.514,75.374,88.061,165.710
-1.378,1.033,0.467,82.031,67.389,250.130
-1.337,0.940,0.516,85.435,23.939,250.130
-1.139,0.809,0.515,87.573,-42.641,250.130
-0.841,0.569,0.387,95.130,-106.206,250.130
-0.568,0.422,0.263,105.679,-144.695,250.130
-0.265,0.302,0.112,117.939,-162.702,250.130
0.033,0.173,-0.040,127.427,-160.954,250.130
0.304,0.149,-0.148,132.237,-145.115,250.130
0.804,0.094,-0.358,130.458,-97.901,250.130
0.950,0.115,-0.378,119.954,-73.153,250.130
1.212,0.124,-0.425,108.733,-37.382,250.130
1.265,0.144,-0.617,98.137,11.496,250.130
1.352,0.128,-0.551,81.855,53.992,250.130
1.336,0.120,-0.499,63.252,68.489,250.130
1.527,0.198,-0.531,45.427,58.573,250.130
1.465,0.154,-0.465,26.695,46.832,216.405
1.464,0.128,-0.495,12.084,31.916,151.458
1.587,0.191,-0.493,-3.282,20.168,81.351
1.584,0.181,-0.484,-17.893,18.504,14.557
1.555,0.179,-0.465,-32.481,25.443,-49.145
1.431,0.206,-0.402,-44.336,36.977,-94.405
1.310,0.239,-0.316,-53.137,46.061,-124.725
1.194,0.270,-0.268,-57.573,56.656,-145.618
1.066,0.328,-0.147,-58.260,62.206,-160.061
0.961,0.323,-0.109,-58.107,56.954,-169.725
0.870,0.373,-0.070,-55.336,56.458,-172.214
0.806,0.401,-0.030,-52.985,57.847,-172.267
0.725,0.458,0.014,-53.038,53.885,-171.580
0.685,0.507,0.036,-54.130,46.496,-170.458
0.653,0.557,0.047,-55.000,40.939,-166.122
0.618,0.595,0.068,-55.267,37.771,-158.847
0.599,0.646,0.094,-55.840,34.908,-150.046
0.579,0.688,0.109,-58.366,30.695,-141.122
0.563,0.725,0.135,-61.412,27.115,-134.450
0.556,0.750,0.150,-63.992,25.115,-127.275
0.531,0.765,0.157,-65.206,26.137,-120.908
0.517,0.790,0.195,-66.573,29.519,-116.710
0.482,0.802,0.224,-68.649,27.702,-113.466
0.461,0.809,0.232,-70.450,21.221,-110.061
0.455,0.814,0.254,-70.977,14.206,-105.924
0.455,0.837,0.265,-69.588,10.519,-101.420
0.443,0.832,0.289,-65.618,8.282,-97.878
0.425,0.829,0.299,-61.229,6.389,-96.153
0.409,0.839,0.307,-55.550,4.771,-96.733
0.395,0.835,0.302,-48.374,5.160,-97.916
0.380,0.840,0.300,-40.985,7.221,-100.061
0.359,0.850,0.296,-32.916,8.931,-102.763
0.329,0.862,0.293,-26.221,12.504,-105.435
0.298,0.877,0.289,-20.260,16.985,-108.244
0.270,0.886,0.304,-16.198,18.450,-109.519
0.244,0.893,0.300,-13.092,17.206,-109.710
0.220,0.917,0.302,-10.496,15.328,-109.313
0.203,0.929,0.284,-7.344,14.397,-108.641
0.177,0.936,0.284,-4.458,14.244,-106.733
0.148,0.930,0.282,-2.191,13.053,-103.878
0.116,0.952,0.269,-0.145,10.214,-100.504
0.095,0.953,0.252,1.779,7.573,-96.824
0.078,0.959,0.243,3.405,4.618,-92.344
0.074,0.967,0.226,5.099,0.832,-85.985
0.065,0.962,0.216,6.679,-0.573,-79.420
0.069,0.965,0.210,6.901,-0.664,-73.244
0.072,0.958,0.206,6.405,0.542,-67.656
0.070,0.969,0.198,4.977,3.397,-63.191
0.062,0.980,0.196,2.687,6.122,-59.435
0.048,0.972,0.209,0.435,7.252,-56.824
0.049,0.970,0.201,-0.992,7.710,-55.206
0.040,0.978,0.219,-2.427,7.351,-54.038
0.025,0.977,0.213,-3.244,4.763,-52.534
0.028,0.966,0.217,-3.725,2.153,-50.328
0.021,0.968,0.214,-3.794,1.092,-47.519
0.033,0.955,0.208,-3.389,1.435,-44.298
0.030,0.944,0.224,-2.382,2.191,-41.519
0.032,0.951,0.220,-1.641,4.000,-40.802
0.037,0.957,0.224,-0.725,5.763,-41.000
0.026,0.944,0.225,0.664,6.122,-42.687
0.021,0.948,0.235,2.328,5.901,-44.405
0.013,0.959,0.227,3.763,6.374,-45.626
-0.006,0.960,0.234,4.397,5.832,-45.824
-0.014,0.963,0.211,5.053,5.023,-45.511
-0.018,0.966,0.210,6.031,4.420,-44.389
-0.020,0.956,0.207,6.206,3.137,-42.702
-0.022,0.963,0.201,5.954,2.511,-40.985
-0.016,0.956,0.200,4.992,2.702,-40.252
-0.025,0.956,0.193,3.924,3.489,-40.427
-0.028,0.956,0.184,2.427,4.382,-40.885
-0.026,0.960,0.185,0.435,5.412,-41.321
-0.042,0.963,0.193,-2.282,6.504,-42.229
-0.054,0.965,0.191,-4.214,7.595,-42.611
-0.064,0.970,0.202,-5.076,7.084,-42.328
-0.075,0.975,0.204,-4.947,6.702,-41.076
-0.091,0.963,0.210,-4.550,6.534,-39.244
-0.093,0.969,0.214,-3.374,6.641,-37.504
-0.108,0.972,0.223,-1.763,7.061,-36.069
-0.104,0.973,0.219,0.168,6.756,-34.397
-0.113,0.966,0.228,1.366,6.336,-32.519
-0.116,0.972,0.227,2.053,6.099,-30.076
-0.122,0.978,0.227,2.366,5.771,-28.229
-0.126,0.976,0.217,2.275,4.550,-26.702
-0.134,0.980,0.227,2.160,3.160,-25.008
-0.143,0.975,0.219,2.481,0.267,-22.885
-0.133,0.969,0.224,2.519,-1.267,-20.237
-0.135,0.969,0.212,2.626,-1.008,-17.786
-0.131,0.966,0.206,2.679,-0.443,-16.038
-0.133,0.973,0.198,2.786,-0.031,-15.229
-0.132,0.977,0.203,3.046,0.328,-14.450
-0.133,0.973,0.204,3.130,1.664,-13.885
-0.144,0.970,0.201,3.595,2.344,-12.969
-0.141,0.974,0.203,3.786,2.427,-10.985
-0.145,0.964,0.201,3.832,1.962,-9.084
-0.149,0.969,0.192,3.473,0.901,-7.496
-0.142,0.966,0.195,2.855,-0.160,-5.847
-0.131,0.954,0.190,2.321,-1.229,-4.580
-0.123,0.958,0.187,1.687,-0.733,-3.183

-0.369,1.132,0.356,24.870,67.458,-26.099
-0.662,1.254,0.441,46.076,99.443,-35.740
-1.182,1.343,0.564,81.855,96.244,-33.557
-1.534,1.213,0.634,120.443,66.305,1.817
-1.580,1.167,0.555,149.626,66.908,90.954
-1.503,1.254,0.450,155.221,74.282,219.435
-1.518,1.171,0.392,143.969,82.992,250.130
-1.502,0.932,0.460,128.305,27.099,250.130
-1.160,0.662,0.372,119.725,-47.672,250.130
-0.731,0.511,0.193,118.344,-101.160,250.130
-0.343,0.332,0.009,119.015,-144.947,250.130
0.003,0.229,-0.166,119.405,-162.679,250.130
0.350,0.119,-0.380,115.282,-153.321,250.130
0.756,0.058,-0.557,98.588,-118.122,250.130
1.093,0.040,-0.700,71.053,-65.046,250.130
1.359,0.040,-0.767,41.237,-1.992,250.130
1.522,0.052,-0.726,13.084,51.908,250.130
1.573,0.091,-0.612,-9.908,78.031,207.954
1.577,0.120,-0.535,-23.405,80.489,141.153
1.576,0.178,-0.432,-30.153,70.023,78.000
1.536,0.235,-0.373,-31.832,54.374,26.137
1.486,0.273,-0.323,-31.244,38.672,-22.702
1.392,0.323,-0.310,-30.000,29.260,-63.359
1.271,0.366,-0.296,-30.115,30.542,-98.847
1.128,0.421,-0.274,-32.053,40.687,-126.153
0.977,0.481,-0.223,-35.038,49.527,-144.374
0.854,0.524,-0.181,-38.794,52.481,-157.321
0.762,0.581,-0.136,-43.076,51.885,-164.412
0.657,0.620,-0.093,-48.359,50.115,-167.588
0.596,0.730,-0.050,-53.443,48.733,-165.229
0.495,0.711,-0.006,-55.710,45.947,-160.298
0.468,0.780,0.000,-57.450,42.099,-149.389
0.419,0.798,0.020,-58.260,37.282,-136.237
0.396,0.823,0.049,-59.153,30.794,-122.901
0.398,0.856,0.066,-61.023,23.046,-109.336
0.377,0.854,0.077,-63.863,13.611,-94.511
0.402,0.869,0.094,-66.466,8.802,-81.405
0.393,0.876,0.114,-68.389,8.634,-71.160
0.389,0.881,0.148,-70.527,8.351,-65.153
0.386,0.885,0.169,-71.573,7.977,-62.405
0.377,0.898,0.189,-71.023,7.748,-60.031
0.381,0.895,0.197,-68.962,8.634,-58.763
0.378,0.907,0.216,-65.779,10.168,-56.901
0.367,0.900,0.212,-61.748,11.252,-55.084
0.360,0.893,0.230,-57.328,11.183,-53.473
0.335,0.893,0.244,-52.618,10.611,-53.641
0.323,0.888,0.237,-48.176,11.076,-54.588
0.291,0.893,0.244,-43.489,13.725,-58.122
0.251,0.910,0.273,-38.878,16.107,-63.214
0.214,0.917,0.287,-34.687,16.817,-67.473
0.190,0.933,0.296,-30.137,15.962,-69.969
0.175,0.939,0.285,-25.969,16.191,-70.031
0.158,0.940,0.277,-22.649,16.924,-69.229
0.155,0.948,0.265,-20.313,18.412,-68.450
0.132,0.948,0.273,-18.939,17.420,-67.489
0.114,0.950,0.273,-18.176,15.176,-67.214
0.097,0.961,0.261,-17.168,13.115,-67.550
0.077,0.966,0.278,-15.634,12.061,-68.229
0.062,0.964,0.282,-12.641,11.137,-67.252
0.045,0.959,0.274,-7.656,9.420,-63.031
0.048,0.963,0.261,-3.046,8.031,-56.985
0.042,0.967,0.258,0.687,7.504,-50.748
0.051,0.967,0.244,2.847,5.389,-44.908
0.058,0.970,0.230,3.115,3.916,-40.748
0.063,0.957,0.222,2.618,3.802,-38.405
0.070,0.946,0.215,0.885,3.603,-37.748
0.075,0.955,0.208,-1.260,3.229,-38.260
0.084,0.959,0.198,-3.794,5.504,-40.344
0.083,0.954,0.200,-5.641,8.466,-42.305
0.066,0.960,0.197,-7.603,10.496,-43.382
0.065,0.955,0.198,-8.504,11.084,-43.031
0.058,0.952,0.202,-9.076,12.084,-41.901
0.059,0.937,0.194,-9.656,12.107,-40.679
0.055,0.935,0.203,-11.290,9.740,-39.580
0.058,0.938,0.215,-13.214,8.725,-39.573
0.057,0.945,0.220,-14.260,8.710,-40.580
0.052,0.942,0.210,-14.290,8.420,-41.496
0.052,0.931,0.228,-13.847,8.924,-42.473
0.044,0.929,0.223,-13.221,11.626,-43.840
0.035,0.934,0.234,-12.710,14.947,-44.977
0.018,0.934,0.240,-11.863,15.924,-46.649
-0.002,0.943,0.253,-10.008,13.756,-47.504
-0.013,0.941,0.261,-8.641,12.153,-47.405
-0.026,0.950,0.267,-7.710,10.321,-46.832
-0.035,0.945,0.257,-7.008,8.420,-45.809
-0.040,0.944,0.268,-6.137,5.412,-44.305
-0.043,0.934,0.260,-5.840,3.740,-42.832
-0.051,0.940,0.246,-6.160,3.557,-42.664
-0.059,0.940,0.258,-6.298,3.489,-42.244
-0.064,0.947,0.253,-5.947,3.496,-42.351
-0.066,0.948,0.262,-5.351,4.473,-41.901
-0.080,0.951,0.255,-4.664,5.840,-41.237
-0.086,0.953,0.259,-4.115,6.779,-40.550
-0.104,0.954,0.260,-3.458,7.084,-39.336
-0.104,0.946,0.245,-2.794,7.878,-37.084
-0.116,0.954,0.246,-2.588,10.130,-35.366
-0.123,0.956,0.255,-2.901,10.115,-34.603
-0.133,0.951,0.252,-3.679,9.382,-33.763
-0.147,0.957,0.259,-4.282,9.130,-33.183
-0.158,0.959,0.255,-5.504,10.038,-32.206
-0.168,0.966,0.257,-6.916,10.702,-30.992
-0.172,0.954,0.258,-7.916,10.847,-29.015
-0.171,0.961,0.255,-8.740,11.076,-26.328
-0.187,0.948,0.258,-8.664,10.366,-23.740
-0.186,0.943,0.259,-8.649,9.885,-20.908
-0.189,0.936,0.253,-8.481,9.221,-17.771
-0.184,0.943,0.268,-8.137,8.924,-14.893
-0.193,0.940,0.272,-7.366,8.924,-12.550
-0.196,0.945,0.286,-6.718,7.092,-10.260
-0.196,0.947,0.287,-6.069,5.023,-8.252
-0.193,0.940,0.286,-5.672,4.206,-6.664
-0.197,0.940,0.291,-5.183,3.649,-4.649
-0.188,0.947,0.297,-4.298,3.260,-2.870
-0.179,0.942,0.287,-3.168,2.458,-1.313
-0.180,0.941,0.299,-2.481,2.092,0.084
-0.172,0.939,0.286,-2.107,2.092,0.954
-0.175,0.935,0.279,-2.244,1.366,1.634
-0.162,0.930,0.292,-1.916,0.710,2.160
-0.155,0.932,0.283,-1.191,-0.206,3.481

-0.369,1.038,0.409,18.313,3.634,12.962
-0.485,1.114,0.440,23.412,13.031,16.137
-0.673,1.192,0.482,29.786,24.618,23.855
-0.880,1.236,0.522,39.748,24.756,38.015
-0.999,1.166,0.527,49.977,12.802,66.053
-1.060,1.146,0.527,61.794,3.519,114.435
-1.136,1.119,0.498,75.527,0.702,174.908
-1.170,0.983,0.463,88.069,-4.794,247.504
-1.117,0.940,0.416,99.305,-9.214,250.130
-1.064,0.783,0.404,105.145,-22.679,250.130
-0.861,0.593,0.388,105.511,-56.656,250.130
-0.581,0.435,0.264,106.702,-86.557,250.130
-0.301,0.318,0.150,110.305,-105.107,250.130
-0.053,0.202,0.015,113.969,-107.832,250.130
0.279,0.120,-0.111,115.458,-97.718,250.130
0.536,0.054,-0.220,113.412,-73.122,250.130
0.829,0.072,-0.313,104.947,-35.099,250.130
1.061,0.051,-0.347,90.115,3.244,250.130
1.195,-0.029,-0.362,66.840,47.542,250.130
1.400,0.056,-0.339,49.069,54.458,250.130
1.388,-0.057,-0.374,31.870,54.176,250.130
1.545,0.029,-0.319,17.985,42.893,250.130
1.626,-0.004,-0.313,4.557,31.122,188.740
1.715,0.000,-0.299,-8.252,19.397,119.519
1.749,-0.007,-0.290,-24.794,12.282,47.489
1.713,-0.020,-0.281,-39.702,13.137,-15.183
1.622,-0.006,-0.242,-49.084,26.603,-67.328
1.475,0.016,-0.138,-52.473,38.580,-106.145
1.317,0.037,-0.045,-53.229,41.374,-134.962
1.187,0.099,0.031,-52.145,36.527,-153.237
1.127,0.148,0.057,-50.656,29.038,-165.641
1.042,0.181,0.058,-46.618,29.977,-170.786
0.944,0.213,0.100,-42.351,29.656,-172.206
0.893,0.279,0.121,-40.359,24.198,-171.992
0.859,0.341,0.125,-41.130,19.519,-172.153
0.799,0.384,0.152,-43.832,18.924,-172.160
0.757,0.458,0.152,-49.321,16.534,-170.832
0.700,0.510,0.163,-52.977,13.214,-168.221
0.672,0.559,0.159,-53.855,11.748,-163.718
0.630,0.601,0.175,-51.893,12.649,-157.031
0.616,0.627,0.184,-49.458,13.901,-149.435
0.600,0.658,0.196,-47.557,14.901,-140.679
0.578,0.695,0.198,-46.519,15.855,-132.046
0.548,0.710,0.224,-47.786,13.557,-125.122
0.531,0.731,0.248,-50.611,9.954,-121.649
0.537,0.753,0.271,-53.687,6.145,-119.618
0.524,0.752,0.269,-55.588,3.977,-119.702
0.510,0.770,0.281,-54.809,3.115,-122.802
0.487,0.782,0.278,-52.489,5.710,-126.550
0.455,0.793,0.287,-48.992,10.840,-130.435
0.398,0.813,0.298,-44.412,15.992,-133.450
0.366,0.839,0.302,-38.550,19.366,-134.466
0.332,0.843,0.296,-31.275,22.344,-132.450
0.309,0.851,0.305,-24.214,23.244,-129.069
0.280,0.870,0.326,-18.870,23.924,-125.405
0.244,0.884,0.326,-16.947,23.489,-123.344
0.215,0.899,0.332,-15.702,20.061,-122.015
0.195,0.920,0.317,-13.702,16.687,-120.267
0.171,0.919,0.321,-10.863,14.679,-117.267
0.154,0.925,0.318,-7.527,13.473,-112.977
0.143,0.943,0.305,-4.176,13.573,-108.244
0.137,0.942,0.291,-1.198,13.511,-102.252
0.107,0.946,0.305,0.740,12.687,-97.435
0.099,0.948,0.286,2.053,10.863,-91.687
0.101,0.951,0.283,3.076,9.183,-86.557
0.090,0.956,0.271,3.634,7.145,-81.053
0.098,0.958,0.264,4.359,6.069,-74.496
0.084,0.946,0.254,4.489,5.405,-69.214
0.091,0.949,0.248,3.718,2.878,-64.626
0.096,0.952,0.248,1.924,0.916,-60.756
0.099,0.963,0.232,-0.420,0.076,-57.565
0.103,0.949,0.222,-3.992,0.382,-54.313
0.111,0.952,0.227,-8.817,1.870,-50.725
0.110,0.938,0.232,-12.985,3.237,-47.595
0.099,0.947,0.250,-16.305,4.710,-46.290
0.091,0.943,0.271,-18.298,4.366,-46.519
0.078,0.939,0.278,-18.305,2.771,-47.374
0.069,0.937,0.293,-16.832,2.061,-47.618
0.065,0.947,0.300,-15.168,2.198,-48.099
0.051,0.950,0.301,-12.634,2.290,-47.908
0.048,0.947,0.290,-9.824,2.748,-47.313
0.038,0.943,0.284,-6.550,2.237,-45.603
0.040,0.935,0.285,-2.847,3.145,-43.069
0.029,0.926,0.288,0.405,3.252,-41.366
0.024,0.934,0.283,3.145,3.137,-40.473
0.017,0.940,0.286,6.000,4.573,-40.710
0.008,0.945,0.276,8.305,4.779,-40.878
0.000,0.948,0.271,9.885,4.328,-40.962
-0.008,0.952,0.265,10.870,2.695,-40.542
-0.016,0.963,0.252,10.702,0.733,-40.244
-0.027,0.957,0.250,9.916,0.298,-39.924
-0.030,0.948,0.245,8.595,1.008,-38.794
-0.025,0.945,0.228,6.695,1.672,-37.550
-0.010,0.946,0.222,5.542,4.603,-36.397
-0.016,0.947,0.232,4.786,8.725,-35.504
-0.024,0.943,0.233,3.863,10.473,-35.366
-0.043,0.948,0.237,3.198,10.947,-35.267
-0.051,0.950,0.230,2.504,11.443,-35.305
-0.061,0.953,0.235,1.504,10.763,-35.420
-0.067,0.950,0.243,0.977,9.267,-35.328
-0.067,0.952,0.243,0.855,6.954,-34.702
-0.078,0.951,0.244,0.519,4.611,-34.031
-0.071,0.953,0.251,0.763,3.534,-33.275
-0.083,0.949,0.257,1.435,3.771,-31.863
-0.089,0.951,0.264,2.221,4.153,-30.214
-0.085,0.952,0.257,3.588,5.527,-28.603
-0.095,0.950,0.258,5.298,5.176,-26.931
-0.101,0.956,0.255,6.878,4.466,-24.939
-0.099,0.951,0.258,8.069,4.748,-23.740
-0.108,0.954,0.250,8.237,4.473,-23.290
-0.105,0.957,0.249,7.626,2.550,-22.718
-0.110,0.950,0.243,6.626,0.931,-21.824
-0.101,0.958,0.238,5.504,0.328,-20.573
-0.113,0.958,0.233,4.359,1.038,-19.099
-0.106,0.951,0.234,3.000,-0.145,-18.275
-0.083,0.954,0.226,2.099,0.618,-16.824
-0.093,0.942,0.218,1.779,4.809,-16.237
-0.102,0.945,0.231,1.298,5.069,-16.076
-0.096,0.942,0.239,0.962,4.908,-15.977

-0.385,1.132,0.363,11.504,25.466,-5.695
-0.632,1.292,0.457,20.313,38.664,-10.977
-0.979,1.329,0.579,36.702,46.748,-14.649
-1.217,1.248,0.729,58.672,32.504,2.107
-1.267,1.111,0.797,90.634,27.137,57.351
-1.382,1.023,0.874,126.702,33.855,152.580
-1.296,1.015,0.870,158.603,15.176,250.130
-1.240,0.891,0.821,185.405,-16.405,250.130
-1.054,0.561,0.740,203.252,-98.206,250.130
-0.614,0.369,0.451,219.237,-171.122,250.130
-0.199,0.200,0.094,232.542,-201.122,250.130
0.173,0.090,-0.242,239.939,-185.374,250.130
0.532,0.014,-0.514,234.855,-132.832,250.130
0.860,0.022,-0.707,212.198,-68.809,250.130
1.150,0.045,-0.840,180.496,-11.427,250.130
1.297,0.042,-0.889,143.038,36.763,250.130
1.394,0.068,-0.903,104.275,65.656,250.130
1.462,0.096,-0.875,66.260,78.779,243.824
1.469,0.096,-0.815,39.962,75.771,179.046
1.447,0.137,-0.747,17.366,67.405,106.290
1.409,0.198,-0.671,-2.115,55.832,31.473
1.350,0.221,-0.623,-17.244,44.969,-21.611
1.275,0.260,-0.583,-26.267,44.779,-54.824
1.167,0.308,-0.534,-32.275,48.473,-78.466
1.038,0.356,-0.461,-36.611,49.328,-96.511
0.935,0.413,-0.381,-40.695,47.053,-108.473
0.902,0.497,-0.407,-44.519,43.084,-114.084
0.839,0.508,-0.305,-49.344,33.282,-115.947
0.819,0.526,-0.293,-51.183,31.366,-113.542
0.778,0.552,-0.249,-54.702,26.191,-112.977
0.759,0.576,-0.227,-63.313,18.550,-119.321
0.750,0.604,-0.206,-72.466,17.916,-127.618
0.731,0.632,-0.181,-80.962,24.969,-134.817
0.691,0.659,-0.158,-86.809,34.450,-140.458
0.641,0.674,-0.121,-89.969,44.176,-145.427
0.598,0.684,-0.081,-90.802,51.420,-148.099
0.558,0.718,-0.013,-90.435,56.626,-147.824
0.517,0.736,0.031,-90.427,54.076,-144.198
0.498,0.763,0.075,-91.939,46.275,-139.405
0.480,0.779,0.099,-93.634,35.000,-134.115
0.472,0.780,0.131,-93.252,28.397,-131.756
0.435,0.803,0.161,-94.000,27.237,-132.153
0.387,0.844,0.204,-92.290,29.046,-136.603
0.354,0.843,0.208,-89.290,33.427,-139.084
0.333,0.849,0.225,-84.916,39.832,-139.603
0.293,0.871,0.243,-79.702,46.305,-138.893
0.262,0.884,0.274,-73.802,49.740,-136.305
0.231,0.897,0.291,-68.107,48.435,-131.595
0.206,0.900,0.310,-61.527,43.855,-125.427
0.191,0.903,0.313,-55.183,38.634,-120.412
0.165,0.914,0.322,-48.824,34.336,-117.069
0.135,0.930,0.318,-44.443,30.328,-115.885
0.096,0.930,0.321,-40.519,25.122,-114.565
0.077,0.942,0.307,-35.985,20.855,-111.305
0.058,0.952,0.295,-30.733,20.023,-106.130
0.045,0.959,0.271,-27.282,20.649,-101.229
0.028,0.971,0.275,-24.954,22.595,-96.198
-0.002,0.984,0.272,-24.137,23.656,-91.313
-0.019,0.996,0.275,-24.695,24.489,-86.649
-0.030,1.004,0.274,-25.405,27.298,-82.641
-0.049,1.000,0.261,-26.305,32.863,-78.840
-0.079,1.005,0.294,-27.405,37.214,-74.389
-0.060,1.012,0.266,-28.198,35.282,-69.153
-0.086,0.962,0.260,-29.748,30.397,-65.473
-0.078,0.935,0.249,-30.206,30.191,-62.786
-0.064,0.934,0.255,-31.168,30.656,-59.267
-0.073,0.934,0.248,-32.740,29.191,-55.649
-0.089,0.918,0.226,-33.168,24.573,-52.527
-0.095,0.910,0.229,-33.260,20.809,-50.229
-0.100,0.924,0.245,-33.305,19.443,-48.305
-0.123,0.938,0.255,-32.863,19.260,-46.954
-0.140,0.938,0.278,-31.939,16.710,-45.000
-0.143,0.945,0.298,-29.695,12.450,-41.588
-0.150,0.944,0.304,-26.328,10.740,-36.847
-0.145,0.933,0.308,-22.435,9.893,-31.344
-0.149,0.935,0.324,-20.084,8.702,-27.053
-0.155,0.939,0.330,-18.557,5.649,-23.893
-0.134,0.936,0.326,-16.740,2.802,-21.824
-0.142,0.922,0.347,-15.855,0.435,-21.267
-0.144,0.922,0.346,-15.260,-2.908,-20.885
-0.132,0.931,0.350,-14.695,-4.939,-20.656
-0.124,0.926,0.349,-13.115,-3.061,-20.061
-0.119,0.932,0.350,-11.817,-0.160,-19.244
-0.108,0.929,0.341,-10.267,2.748,-18.611
-0.116,0.924,0.347,-8.794,2.863,-18.427
-0.114,0.913,0.338,-7.565,2.053,-18.504
-0.108,0.904,0.333,-7.137,0.267,-18.366
-0.101,0.916,0.339,-6.641,0.122,-18.321
-0.108,0.907,0.331,-6.183,1.023,-19.107
-0.108,0.910,0.342,-6.061,1.122,-19.687
-0.107,0.920,0.338,-5.130,1.084,-20.450
-0.118,0.903,0.344,-3.450,0.107,-20.641
-0.116,0.897,0.357,-0.985,-0.664,-20.183
-0.117,0.915,0.360,0.763,-0.458,-18.664
-0.124,0.914,0.353,2.504,-0.267,-17.824
-0.128,0.911,0.356,3.298,-2.168,-17.275
-0.134,0.916,0.344,3.290,-3.542,-17.046
-0.129,0.921,0.333,3.298,-2.672,-17.229
-0.141,0.919,0.324,2.664,0.328,-17.405
-0.140,0.922,0.323,2.321,2.244,-17.344
-0.156,0.918,0.323,1.901,3.038,-17.130
-0.164,0.918,0.322,1.809,2.504,-16.290
-0.175,0.914,0.321,1.992,1.351,-15.107
-0.170,0.910,0.323,2.298,0.046,-12.985
-0.175,0.917,0.327,2.863,-1.275,-10.504
-0.180,0.914,0.327,3.557,-1.092,-8.809
-0.173,0.922,0.321,3.901,-0.779,-7.260
-0.169,0.916,0.314,4.305,-1.588,-5.870
-0.164,0.915,0.312,4.015,-1.702,-4.954
-0.156,0.910,0.314,3.351,-0.878,-4.794
-0.153,0.912,0.298,2.756,-0.374,-5.321
-0.154,0.907,0.299,2.695,-0.763,-5.725
-0.152,0.905,0.291,2.557,-0.351,-6.107
-0.159,0.905,0.297,2.282,-0.137,-5.947
-0.154,0.910,0.293,1.527,0.282,-5.504
-0.160,0.917,0.294,0.458,1.115,-5.046
-0.172,0.917,0.293,-0.267,2.763,-4.679
-0.169,0.917,0.293,-1.107,3.954,-3.847
-0.166,0.915,0.303,-1.481,4.489,-3.176

-0.401,1.052,0.382,8.695,13.275,17.382
-0.526,1.090,0.436,10.779,16.618,27.855
-0.664,1.126,0.462,10.481,17.840,43.076
-0.794,1.162,0.498,8.931,13.374,61.565
-0.915,1.139,0.550,10.496,3.885,90.321
-1.036,1.116,0.582,14.076,-0.473,118.473
-1.117,1.037,0.594,22.374,-10.924,156.763
-1.173,0.953,0.622,36.237,-18.290,214.313
-1.207,0.895,0.621,53.008,-25.351,250.130
-1.179,0.798,0.625,71.145,-36.901,250.130
-1.049,0.676,0.593,90.473,-64.267,250.130
-0.811,0.528,0.508,110.466,-91.405,250.130
-0.524,0.350,0.390,130.168,-111.733,250.130
-0.187,0.236,0.248,148.107,-114.832,250.130
0.130,0.146,0.103,160.855,-99.710,250.130
0.373,0.071,0.006,164.809,-75.603,250.130
0.593,0.034,-0.114,162.382,-51.160,250.130
0.856,0.026,-0.207,154.656,-25.412,250.130
1.034,-0.023,-0.263,139.527,8.069,250.130
1.223,-0.053,-0.323,118.130,38.351,250.130
1.309,-0.138,-0.398,96.198,80.244,250.130
1.294,-0.083,-0.257,68.519,77.977,250.130
1.446,-0.024,-0.265,38.015,43.420,250.130
1.614,0.001,-0.298,17.298,23.252,236.992
1.687,-0.082,-0.292,-2.183,20.015,154.473
1.740,-0.068,-0.283,-20.084,18.496,76.832
1.702,-0.082,-0.246,-35.122,20.130,12.565
1.635,-0.099,-0.189,-46.198,28.038,-40.557
1.587,-0.059,-0.194,-52.489,36.252,-76.107
1.396,-0.076,0.009,-57.061,37.802,-103.901
1.266,-0.042,0.057,-57.252,38.382,-124.908
1.196,-0.042,0.102,-53.542,35.557,-134.389
1.126,-0.003,0.132,-48.160,31.588,-141.015
1.073,0.036,0.146,-42.282,26.351,-147.229
1.023,0.092,0.161,-36.954,24.183,-152.702
0.977,0.143,0.170,-33.443,23.473,-159.229
0.926,0.218,0.183,-34.412,20.809,-165.595
0.879,0.285,0.187,-37.359,16.901,-172.122
0.852,0.348,0.187,-40.229,13.427,-176.588
0.809,0.401,0.186,-41.817,9.435,-177.573
0.770,0.422,0.199,-42.366,6.053,-176.061
0.742,0.463,0.188,-41.870,5.313,-172.779
0.701,0.497,0.194,-42.000,7.641,-168.748
0.653,0.560,0.204,-43.763,11.840,-164.351
0.598,0.608,0.245,-46.290,13.519,-161.710
0.564,0.656,0.259,-46.924,11.679,-159.756
0.563,0.689,0.276,-43.176,14.969,-157.397
0.526,0.698,0.281,-36.267,25.191,-155.618
0.478,0.743,0.314,-29.366,32.863,-154.679
0.428,0.776,0.338,-24.466,37.038,-154.229
0.391,0.809,0.350,-18.786,40.939,-152.221
0.353,0.845,0.349,-10.382,47.298,-148.985
0.303,0.862,0.345,0.145,56.252,-144.817
0.242,0.885,0.346,13.076,64.275,-138.168
0.177,0.917,0.362,24.313,64.542,-131.298
0.138,0.948,0.351,35.298,59.420,-120.565
0.086,0.962,0.328,43.878,52.611,-109.832
0.045,0.991,0.341,42.893,28.053,-94.069
0.034,1.013,0.322,42.076,6.824,-85.817
0.089,1.054,0.259,40.122,5.244,-79.023
0.115,1.045,0.233,37.412,11.046,-71.176
0.123,1.031,0.226,32.176,15.405,-61.336
0.136,1.038,0.222,27.061,16.160,-51.809
0.138,1.013,0.207,21.099,13.725,-40.260
0.157,1.029,0.197,15.344,9.618,-29.656
0.174,0.981,0.172,11.641,8.076,-19.351
0.183,0.985,0.189,8.107,5.183,-11.198
0.197,0.964,0.163,4.008,0.206,-4.260
0.217,0.952,0.157,0.748,-2.397,0.702
0.233,0.936,0.146,-2.771,-3.336,3.725
0.262,0.912,0.134,-7.038,-4.084,5.015
0.292,0.914,0.125,-10.855,-0.947,4.939
0.315,0.907,0.118,-14.260,3.878,2.450
0.311,0.908,0.114,-18.298,7.168,-2.267
0.297,0.911,0.133,-24.481,7.534,-8.504
0.308,0.924,0.143,-31.351,4.588,-14.099
0.312,0.929,0.153,-38.664,3.252,-17.901
0.311,0.925,0.155,-46.115,4.588,-20.351
0.308,0.919,0.175,-52.168,6.221,-21.740
0.308,0.911,0.194,-56.282,6.397,-22.557
0.328,0.905,0.197,-57.992,5.908,-22.550
0.339,0.877,0.242,-57.504,2.313,-22.481
0.364,0.856,0.274,-56.656,-2.725,-22.969
0.377,0.854,0.296,-55.321,-9.885,-25.305
0.380,0.851,0.301,-52.450,-20.305,-30.832
0.386,0.828,0.295,-48.389,-26.924,-39.321
0.396,0.827,0.300,-44.000,-28.962,-48.359
0.383,0.816,0.316,-41.641,-27.275,-55.595
0.364,0.839,0.314,-41.145,-26.366,-63.573
0.354,0.855,0.323,-40.885,-24.450,-70.473
0.337,0.840,0.323,-38.649,-21.580,-75.634
0.315,0.853,0.333,-34.420,-19.527,-78.985
0.303,0.848,0.332,-28.489,-12.511,-80.481
0.272,0.859,0.349,-20.076,-7.321,-81.641
0.262,0.868,0.371,-12.626,-2.786,-81.198
0.217,0.858,0.387,-4.176,0.947,-80.076
0.191,0.863,0.418,2.847,-0.985,-77.817
0.175,0.882,0.413,8.466,-6.359,-73.695
0.161,0.875,0.410,12.817,-11.084,-69.115
0.161,0.893,0.402,16.473,-14.076,-64.679
0.149,0.900,0.380,19.214,-14.992,-61.244
0.124,0.901,0.376,20.855,-12.809,-59.679
0.103,0.920,0.368,20.649,-10.504,-58.695
0.087,0.933,0.344,19.611,-7.397,-55.542
0.092,0.922,0.340,18.527,-3.321,-49.832
0.093,0.929,0.324,16.931,0.099,-44.504
0.075,0.930,0.316,15.511,0.076,-40.771
0.089,0.924,0.313,13.229,-2.580,-37.832
0.097,0.925,0.315,10.618,-6.000,-36.061
0.108,0.901,0.303,8.229,-8.565,-35.519
0.128,0.910,0.295,5.779,-9.420,-37.008
0.127,0.900,0.286,2.855,-12.901,-40.008
0.138,0.894,0.264,1.038,-14.725,-43.847
0.139,0.892,0.244,0.992,-13.321,-48.046
0.146,0.888,0.246,1.145,-9.198,-51.832
0.149,0.906,0.236,1.267,-2.450,-55.290
0.119,0.889,0.235,1.542,4.252,-59.450
0.088,0.896,0.254,1.321,9.015,-64.099
0.054,0.901,0.247,1.069,12.206,-66.924

-0.378,1.057,0.365,28.405,25.107,26.137
-0.624,1.168,0.460,37.916,29.802,34.954
-0.857,1.191,0.517,45.649,23.511,53.084
-1.035,1.219,0.562,58.336,19.908,86.611
-1.191,1.147,0.632,78.977,20.718,145.763
-1.282,1.033,0.662,99.557,11.634,221.473
-1.291,1.007,0.641,117.954,9.427,250.130
-1.235,0.832,0.627,130.885,-3.321,250.130
-1.029,0.641,0.594,138.298,-33.511,250.130
-0.716,0.475,0.512,141.924,-71.504,250.130
-0.364,0.320,0.399,147.679,-105.061,250.130
0.016,0.165,0.238,156.634,-124.420,250.130
0.408,0.088,0.073,166.969,-125.092,250.130
0.758,0.006,-0.114,173.962,-102.695,250.130
1.050,-0.045,-0.258,173.321,-58.252,250.130
1.316,-0.023,-0.386,163.817,-5.817,250.130
1.493,-0.023,-0.428,145.015,29.893,250.130
1.584,-0.040,-0.401,121.405,34.664,250.130
1.608,-0.062,-0.405,100.672,20.473,250.130
1.666,-0.082,-0.409,83.107,6.695,183.374
1.705,0.030,-0.434,64.649,-10.519,105.824
1.746,0.045,-0.508,43.809,-22.527,35.107
1.725,0.066,-0.569,20.389,-10.832,-31.382
1.572,0.103,-0.551,-0.954,11.412,-81.626
1.410,0.148,-0.485,-16.519,25.153,-114.183
1.245,0.192,-0.390,-28.718,30.916,-136.198
1.089,0.264,-0.316,-41.481,31.107,-149.908
0.972,0.345,-0.238,-52.069,27.618,-154.954
0.884,0.349,-0.187,-60.053,20.458,-154.534
0.813,0.378,-0.170,-62.504,19.649,-148.481
0.751,0.406,-0.125,-63.321,17.863,-140.733
0.702,0.455,-0.081,-66.206,10.832,-134.519
0.699,0.508,-0.068,-71.718,1.069,-129.145
0.682,0.548,-0.059,-78.969,-7.092,-121.176
0.676,0.586,-0.050,-85.160,-9.794,-113.137
0.668,0.629,-0.051,-88.168,-7.389,-106.542
0.679,0.639,-0.032,-87.336,-1.183,-99.954
0.675,0.654,-0.013,-84.962,5.534,-95.031
0.667,0.671,0.005,-82.092,10.244,-93.664
0.640,0.700,0.048,-80.840,13.817,-94.137
0.608,0.728,0.071,-81.015,12.435,-96.069
0.586,0.756,0.102,-81.924,10.481,-97.611
0.568,0.789,0.128,-81.901,11.260,-98.725
0.533,0.806,0.148,-80.145,14.374,-98.939
0.510,0.818,0.165,-77.511,17.099,-97.855
0.481,0.830,0.180,-73.977,19.076,-95.733
0.460,0.852,0.192,-70.557,18.969,-92.855
0.432,0.864,0.205,-67.084,19.015,-91.214
0.416,0.876,0.222,-63.519,18.885,-91.351
0.398,0.890,0.246,-60.260,20.450,-89.595
0.384,0.894,0.262,-57.130,21.573,-88.702
0.341,0.877,0.281,-52.939,18.336,-86.748
0.344,0.893,0.281,-49.122,14.198,-84.374
0.335,0.897,0.282,-43.802,12.046,-82.038
0.328,0.889,0.268,-37.237,12.382,-79.824
0.312,0.899,0.266,-30.214,14.656,-77.420
0.302,0.900,0.267,-24.908,17.664,-75.496
0.292,0.925,0.269,-21.466,17.763,-74.069
0.269,0.927,0.272,-19.084,16.969,-71.634
0.268,0.932,0.259,-16.053,14.779,-68.000
0.279,0.937,0.257,-10.855,14.794,-64.046
0.275,0.914,0.247,-5.466,13.939,-60.359
0.276,0.908,0.242,-2.076,8.840,-57.153
0.277,0.903,0.241,-0.832,4.260,-55.771
0.281,0.911,0.233,-1.221,1.664,-55.855
0.279,0.900,0.215,-2.458,0.420,-57.168
0.280,0.899,0.194,-4.618,0.443,-58.595
0.276,0.893,0.179,-7.092,1.519,-59.542
0.276,0.896,0.178,-10.122,3.252,-60.374
0.280,0.911,0.178,-13.366,4.420,-61.099
0.276,0.916,0.177,-16.328,6.580,-62.053
0.262,0.907,0.179,-18.275,7.313,-62.901
0.254,0.906,0.183,-19.832,7.847,-63.649
0.254,0.911,0.188,-20.870,10.115,-64.267
0.239,0.912,0.206,-21.420,14.328,-65.557
0.210,0.905,0.220,-22.092,17.298,-67.153
0.186,0.913,0.223,-22.122,17.145,-68.252
0.174,0.920,0.225,-21.496,18.084,-69.137
0.159,0.929,0.238,-20.061,21.000,-68.664
0.129,0.940,0.257,-19.656,20.733,-66.947
0.112,0.947,0.256,-20.565,18.237,-63.908
0.113,0.946,0.261,-21.267,17.321,-60.672
0.095,0.958,0.271,-22.160,14.733,-57.076
0.092,0.952,0.277,-22.740,11.092,-53.298
0.082,0.954,0.276,-22.748,9.893,-50.168
0.071,0.954,0.277,-22.084,9.893,-48.359
0.052,0.958,0.289,-20.740,10.015,-46.290
0.051,0.957,0.302,-19.130,8.893,-43.664
0.042,0.953,0.290,-17.351,7.282,-40.267
0.035,0.959,0.287,-16.374,4.992,-36.023
0.026,0.959,0.289,-16.550,3.664,-31.298
0.024,0.954,0.280,-17.870,1.122,-27.198
0.031,0.963,0.277,-19.137,-1.046,-23.588
0.025,0.951,0.278,-20.229,-1.672,-20.672
0.036,0.948,0.282,-21.122,-2.565,-17.977
0.060,0.946,0.282,-21.046,0.176,-15.542
0.061,0.929,0.288,-19.679,4.603,-14.389
0.058,0.927,0.294,-18.481,7.237,-14.672
0.062,0.927,0.308,-17.641,7.649,-15.786
0.056,0.915,0.316,-16.992,8.336,-17.260
0.056,0.916,0.323,-16.511,8.496,-19.076
0.060,0.914,0.329,-15.618,7.885,-20.878
0.047,0.921,0.325,-14.580,6.779,-21.504
0.052,0.920,0.325,-12.939,7.008,-21.954
0.050,0.912,0.341,-10.878,6.840,-21.634
0.048,0.917,0.332,-9.183,7.672,-21.008
0.047,0.917,0.322,-8.023,7.985,-20.725
0.053,0.909,0.328,-6.756,9.885,-21.084
0.045,0.904,0.317,-5.435,8.863,-21.565
0.041,0.911,0.324,-5.313,7.832,-22.595
0.038,0.911,0.321,-5.214,7.366,-23.618
0.034,0.912,0.315,-5.634,6.802,-24.153
0.034,0.906,0.320,-6.321,5.855,-24.382
0.037,0.913,0.322,-7.695,4.901,-24.389
0.027,0.918,0.289,-9.038,4.366,-24.374
0.029,0.915,0.304,-9.947,3.221,-24.344
0.023,0.904,0.314,-10.481,3.550,-24.244
0.024,0.905,0.302,-11.122,4.603,-24.214
0.020,0.898,0.299,-12.527,6.672,-24.527

-0.345,1.049,0.459,39.504,19.534,7.702
-0.469,1.110,0.499,46.076,20.389,13.252
-0.605,1.144,0.533,51.511,15.435,23.153
-0.719,1.150,0.541,57.519,9.321,41.802
-0.803,1.167,0.559,65.176,2.496,70.321
-0.848,1.128,0.544,71.840,-0.824,105.702
-0.910,1.100,0.527,77.542,-0.412,157.153
-0.958,1.052,0.521,79.649,-9.939,212.878
-0.982,0.983,0.510,79.832,-21.664,250.130
-0.942,0.894,0.471,82.687,-40.733,250.130
-0.826,0.746,0.431,88.794,-64.542,250.130
-0.632,0.605,0.367,95.573,-83.992,250.130
-0.438,0.471,0.299,99.412,-99.931,250.130
-0.206,0.334,0.199,101.962,-110.763,250.130
0.007,0.260,0.101,105.061,-109.855,250.130
0.267,0.187,-0.000,107.435,-95.053,250.130
0.521,0.138,-0.085,108.221,-73.084,250.130
0.706,0.129,-0.152,108.794,-50.511,250.130
0.993,0.058,-0.246,108.061,-4.160,250.130
1.188,0.008,-0.257,105.069,34.725,250.130
1.332,0.055,-0.188,97.000,40.710,250.130
1.390,-0.010,-0.185,86.557,38.893,250.130
1.574,-0.039,-0.228,76.130,44.557,250.130
1.608,-0.084,-0.214,61.916,38.321,221.015
1.705,-0.031,-0.226,46.908,23.015,158.702
1.653,-0.071,-0.192,32.679,3.870,98.397
1.706,-0.035,-0.228,15.351,-17.885,16.435
1.719,-0.048,-0.272,0.038,-10.641,-57.221
1.579,-0.015,-0.163,-13.313,6.069,-113.534
1.455,0.014,-0.173,-27.282,15.053,-154.496
1.263,0.069,-0.123,-35.397,26.397,-179.603
1.088,0.128,-0.032,-40.687,28.244,-193.198
0.959,0.180,0.004,-46.366,22.863,-197.382
0.890,0.238,0.010,-51.160,21.947,-194.702
0.811,0.293,0.019,-55.847,27.649,-187.855
0.749,0.382,0.066,-60.450,28.794,-180.031
0.676,0.430,0.099,-66.076,27.626,-173.160
0.634,0.512,0.132,-73.527,17.450,-164.206
0.624,0.546,0.127,-78.412,7.656,-153.603
0.633,0.567,0.126,-79.061,3.824,-142.779
0.633,0.593,0.137,-77.305,5.420,-130.832
0.651,0.621,0.147,-74.160,12.084,-121.221
0.651,0.640,0.162,-72.450,20.733,-110.840
0.630,0.665,0.207,-72.977,22.099,-103.672
0.618,0.700,0.232,-74.756,20.748,-99.763
0.586,0.711,0.240,-75.237,19.458,-99.511
0.592,0.724,0.257,-73.733,20.313,-99.931
0.577,0.723,0.276,-70.015,22.931,-99.985
0.578,0.732,0.274,-64.595,27.573,-99.099
0.567,0.747,0.301,-58.183,31.832,-98.740
0.552,0.760,0.295,-52.008,35.328,-99.702
0.513,0.770,0.319,-46.985,38.061,-101.779
0.485,0.793,0.336,-43.290,37.626,-104.443
0.457,0.803,0.352,-39.305,37.046,-107.779
0.437,0.809,0.348,-34.359,35.802,-109.763
0.414,0.818,0.354,-28.916,37.046,-110.298
0.390,0.826,0.344,-23.099,38.618,-109.603
0.375,0.827,0.343,-18.878,39.015,-107.947
0.368,0.829,0.343,-15.305,40.130,-106.595
0.357,0.831,0.337,-11.939,40.817,-105.534
0.339,0.830,0.330,-10.061,42.427,-105.282
0.313,0.849,0.336,-11.389,46.611,-107.405
0.281,0.867,0.329,-14.679,52.939,-111.267
0.233,0.870,0.330,-21.069,56.282,-116.458
0.208,0.886,0.328,-26.321,54.466,-120.267
0.209,0.898,0.323,-31.038,53.534,-122.092
0.186,0.893,0.324,-31.733,52.809,-120.725
0.172,0.893,0.336,-29.969,49.305,-116.206
0.150,0.882,0.358,-26.420,42.809,-109.260
0.149,0.891,0.352,-21.153,36.084,-97.924
0.138,0.913,0.357,-15.397,29.076,-85.198
0.139,0.910,0.363,-10.366,24.878,-72.542
0.132,0.901,0.360,-6.137,24.015,-58.511
0.103,0.899,0.370,-4.046,24.328,-47.855
0.083,0.905,0.396,-4.786,19.527,-42.832
0.080,0.899,0.385,-6.023,12.069,-40.870
0.087,0.904,0.381,-6.481,7.008,-40.084
0.101,0.913,0.366,-5.847,6.550,-39.260
0.094,0.904,0.358,-5.496,7.634,-37.969
0.093,0.908,0.373,-6.000,6.847,-36.893
0.105,0.904,0.369,-6.443,6.817,-35.321
0.103,0.900,0.369,-6.328,7.916,-33.740
0.105,0.893,0.368,-6.305,7.718,-32.763
0.104,0.888,0.371,-5.870,9.023,-32.359
0.094,0.882,0.379,-5.573,9.557,-32.824
0.085,0.887,0.387,-5.046,6.672,-33.527
0.096,0.881,0.391,-4.000,3.878,-33.740
0.107,0.881,0.381,-1.710,2.695,-34.008
0.107,0.882,0.378,0.786,2.389,-35.374
0.102,0.875,0.379,2.634,1.939,-37.382
0.094,0.880,0.380,3.580,0.756,-39.771
0.084,0.885,0.373,4.435,0.031,-42.794
0.072,0.888,0.364,5.237,-1.802,-44.908
0.061,0.885,0.374,5.573,-4.588,-46.229
0.056,0.907,0.351,6.611,-7.672,-47.366
0.052,0.908,0.362,7.183,-10.511,-47.511
0.033,0.886,0.371,6.962,-15.511,-46.962
0.018,0.891,0.376,6.641,-21.023,-45.794
0.011,0.896,0.367,5.656,-25.328,-44.298
-0.004,0.886,0.369,5.160,-30.733,-42.015
-0.007,0.892,0.368,4.771,-34.679,-39.832
-0.001,0.903,0.361,3.977,-33.885,-36.985
0.005,0.911,0.351,4.473,-29.427,-34.366
0.014,0.915,0.348,6.321,-19.107,-31.443
0.009,0.909,0.355,8.550,-10.267,-30.183
-0.009,0.909,0.371,10.420,-5.802,-29.611
-0.015,0.910,0.390,11.947,-3.466,-29.214
-0.012,0.910,0.372,13.382,0.588,-28.901
-0.017,0.914,0.372,14.008,4.137,-28.870
-0.020,0.909,0.365,14.237,5.595,-29.008
-0.030,0.911,0.354,14.489,3.511,-28.473
-0.032,0.921,0.350,14.710,2.573,-27.244
-0.041,0.908,0.346,14.863,0.099,-25.908
-0.035,0.900,0.342,14.397,-3.183,-24.527
-0.029,0.902,0.324,13.641,-4.786,-23.191
-0.027,0.917,0.311,12.840,-3.458,-23.015
-0.027,0.913,0.306,12.206,-0.725,-23.725
-0.032,0.912,0.308,10.573,0.931,-24.824
-0.036,0.904,0.291,8.618,2.153,-25.504

-0.360,1.075,0.425,15.870,21.511,25.344
-0.540,1.154,0.493,17.908,27.229,31.969
-0.823,1.273,0.587,20.336,27.412,45.405
-1.109,1.249,0.659,24.473,3.969,78.779
-1.287,1.134,0.673,34.565,-24.443,133.298
-1.287,1.033,0.677,47.687,-47.237,222.969
-1.270,0.929,0.698,60.687,-67.351,250.130
-1.152,0.766,0.696,75.290,-99.160,250.130
-0.848,0.514,0.610,97.130,-142.740,250.130
-0.458,0.280,0.481,121.336,-157.840,250.130
-0.103,0.147,0.368,142.214,-152.069,250.130
0.192,0.049,0.235,158.031,-132.893,250.130
0.552,0.003,0.106,164.901,-103.626,250.130
0.767,0.002,-0.041,166.710,-54.847,250.130
1.017,-0.018,-0.104,155.122,-6.328,250.130
1.196,-0.025,-0.188,135.458,9.481,250.130
1.380,-0.024,-0.248,114.939,5.252,250.130
1.479,-0.008,-0.319,98.870,0.786,250.130
1.542,-0.004,-0.331,83.649,-16.672,250.130
1.640,-0.007,-0.376,69.618,-31.107,208.794
1.747,0.036,-0.475,57.641,-25.771,130.267
1.765,0.042,-0.451,46.260,-19.336,62.656
1.740,0.037,-0.452,31.221,-18.397,-8.298
1.701,0.056,-0.456,17.748,-8.702,-67.405
1.624,0.072,-0.435,9.427,5.206,-110.115
1.491,0.081,-0.365,2.947,17.557,-149.420
1.358,0.120,-0.300,-2.695,22.947,-180.420
1.197,0.139,-0.293,-9.504,24.214,-205.641
1.070,0.179,-0.191,-16.847,27.412,-223.504
0.972,0.250,-0.146,-23.824,29.969,-233.519
0.835,0.281,-0.085,-27.183,38.550,-237.328
0.721,0.373,-0.031,-31.099,39.626,-238.519
0.634,0.419,0.004,-37.351,33.282,-237.702
0.579,0.484,0.035,-43.664,27.244,-234.260
0.535,0.571,0.042,-49.687,24.580,-228.183
0.503,0.621,0.035,-54.779,25.489,-220.817
0.468,0.663,0.046,-58.664,27.603,-210.947
0.433,0.705,0.062,-62.214,27.718,-198.305
0.413,0.771,0.073,-62.351,25.687,-186.328
0.413,0.810,0.095,-60.687,30.458,-173.076
0.389,0.811,0.137,-59.237,33.824,-157.122
0.351,0.819,0.159,-59.229,30.458,-143.336
0.348,0.845,0.199,-60.901,23.656,-128.885
0.352,0.863,0.225,-62.527,17.870,-116.733
0.341,0.868,0.239,-63.664,15.282,-107.969
0.327,0.883,0.260,-64.695,13.687,-102.115
0.314,0.892,0.276,-64.901,12.305,-97.977
0.299,0.889,0.277,-64.282,12.153,-95.336
0.299,0.891,0.285,-62.588,13.824,-92.855
0.285,0.901,0.287,-60.687,15.061,-91.695
0.269,0.901,0.295,-57.481,16.053,-90.931
0.260,0.932,0.296,-53.046,14.725,-90.992
0.263,0.932,0.312,-48.237,16.336,-90.786
0.251,0.920,0.326,-43.160,20.954,-89.282
0.209,0.914,0.342,-38.664,22.435,-87.527
0.179,0.920,0.364,-34.244,19.412,-86.435
0.162,0.924,0.361,-29.511,16.176,-86.641
0.144,0.917,0.362,-23.649,15.443,-85.756
0.112,0.924,0.357,-18.267,14.527,-85.313
0.100,0.925,0.354,-13.405,10.908,-84.092
0.078,0.939,0.341,-10.191,6.786,-82.863
0.068,0.948,0.336,-7.405,3.397,-81.679
0.076,0.963,0.308,-4.550,1.466,-80.260
0.060,0.951,0.288,-1.947,1.954,-77.969
0.061,0.944,0.286,0.183,-0.374,-74.809
0.074,0.959,0.269,1.771,0.504,-70.954
0.058,0.946,0.250,2.229,3.122,-68.389
0.051,0.944,0.269,1.542,5.122,-65.779
0.032,0.946,0.248,0.527,7.573,-64.107
0.024,0.951,0.248,0.046,7.695,-62.328
0.017,0.951,0.234,-0.008,7.550,-59.405
0.004,0.950,0.240,-0.015,8.084,-55.893
0.002,0.965,0.238,-0.817,9.023,-52.718
-0.007,0.961,0.247,-1.656,8.740,-50.038
-0.021,0.952,0.237,-3.305,6.809,-46.718
-0.021,0.942,0.233,-5.183,4.595,-43.847
-0.021,0.958,0.225,-7.634,3.786,-41.618
-0.012,0.953,0.234,-9.817,5.992,-39.969
-0.007,0.943,0.225,-11.099,8.198,-38.443
-0.016,0.954,0.245,-12.504,9.282,-37.031
-0.021,0.944,0.239,-13.641,10.527,-36.084
-0.030,0.948,0.254,-14.779,12.229,-35.740
-0.043,0.952,0.258,-16.031,12.763,-35.298
-0.051,0.952,0.260,-17.282,11.183,-34.527
-0.062,0.955,0.264,-18.298,8.130,-33.389
-0.063,0.944,0.273,-18.924,6.542,-31.534
-0.058,0.931,0.264,-19.267,4.893,-28.824
-0.056,0.933,0.263,-19.779,3.359,-26.344
-0.040,0.923,0.264,-20.824,2.489,-24.084
-0.047,0.922,0.277,-21.954,-0.160,-22.664
-0.039,0.921,0.279,-23.435,-1.573,-23.214
-0.040,0.919,0.289,-24.885,-1.023,-24.542
-0.040,0.926,0.294,-25.565,0.924,-26.336
-0.041,0.919,0.297,-24.763,4.786,-28.534
-0.048,0.921,0.302,-22.328,9.145,-30.321
-0.059,0.916,0.320,-19.252,12.336,-31.298
-0.067,0.901,0.334,-16.214,13.870,-31.511
-0.081,0.906,0.335,-13.412,14.664,-31.084
-0.078,0.905,0.344,-10.687,14.168,-30.435
-0.083,0.894,0.343,-8.275,13.840,-29.824
-0.089,0.904,0.344,-6.282,14.405,-30.137
-0.092,0.913,0.349,-5.145,16.992,-30.969
-0.108,0.915,0.362,-4.282,16.985,-32.664
-0.127,0.917,0.366,-3.229,15.008,-33.656
-0.133,0.925,0.366,-1.679,12.252,-33.695
-0.147,0.923,0.365,-0.023,9.656,-32.290
-0.159,0.919,0.361,0.237,7.008,-30.519
-0.160,0.925,0.357,0.069,5.389,-28.824
-0.163,0.930,0.350,-0.824,4.237,-26.779
-0.166,0.930,0.344,-2.405,3.802,-25.031
-0.175,0.935,0.342,-3.565,3.435,-22.985
-0.180,0.926,0.338,-3.695,2.695,-20.321
-0.179,0.923,0.341,-2.679,2.603,-17.221
-0.179,0.923,0.343,-1.099,2.710,-13.809
-0.178,0.915,0.335,0.053,2.985,-11.176
-0.172,0.921,0.343,0.702,2.038,-8.534
-0.175,0.918,0.340,1.137,1.229,-6.985
-0.170,0.918,0.339,1.260,1.305,-5.679
-0.172,0.912,0.326,1.321,1.252,-5.191

-0.417,1.065,0.387,24.336,32.763,16.382
-0.542,1.123,0.424,29.824,34.244,26.305
-0.746,1.202,0.474,31.740,26.809,38.885
-0.882,1.234,0.531,31.595,15.389,58.214
-0.985,1.226,0.511,33.084,1.122,92.183
-1.061,1.208,0.509,39.229,-4.397,138.519
-1.181,1.112,0.549,45.275,-13.985,188.985
-1.185,0.985,0.554,51.504,-37.649,250.130
-1.117,0.868,0.551,59.802,-59.122,250.130
-0.969,0.736,0.545,68.099,-88.702,250.130
-0.746,0.537,0.541,74.710,-123.107,250.130
-0.479,0.420,0.458,82.855,-145.916,250.130
-0.163,0.290,0.337,95.679,-148.130,250.130
0.096,0.168,0.245,109.565,-140.267,250.130
0.345,0.146,0.148,119.863,-121.038,250.130
0.590,0.127,0.068,125.031,-94.145,250.130
0.805,0.124,-0.016,125.489,-69.962,250.130
0.992,0.124,-0.067,121.504,-53.885,250.130
1.153,0.137,-0.125,114.344,-53.748,250.130
1.314,0.136,-0.208,107.550,-57.122,250.130
1.417,0.127,-0.288,102.763,-52.168,250.130
1.512,0.141,-0.400,97.901,-40.351,203.756
1.546,0.120,-0.429,89.046,-24.641,151.878
1.558,0.172,-0.443,70.107,-22.160,95.183
1.527,0.162,-0.477,51.550,-16.076,43.366
1.483,0.188,-0.474,32.008,-3.649,-10.282
1.388,0.199,-0.460,14.649,8.252,-53.656
1.255,0.211,-0.466,2.214,18.977,-83.374
1.130,0.243,-0.352,-8.351,32.595,-105.756
1.034,0.322,-0.300,-16.542,41.412,-115.656
0.897,0.348,-0.241,-23.489,46.893,-117.092
0.826,0.407,-0.168,-30.756,41.740,-114.458
0.762,0.437,-0.143,-37.649,31.870,-110.580
0.755,0.483,-0.122,-44.878,21.313,-105.832
0.759,0.528,-0.123,-51.275,14.618,-99.641
0.754,0.559,-0.106,-57.817,13.977,-92.718
0.740,0.600,-0.062,-64.557,15.275,-86.290
0.732,0.609,-0.034,-70.847,15.679,-82.534
0.736,0.612,0.001,-75.511,16.748,-80.679
0.743,0.620,0.016,-77.489,19.275,-81.115
0.735,0.625,0.051,-77.954,21.611,-82.985
0.725,0.638,0.070,-76.878,22.733,-85.435
0.728,0.652,0.094,-74.618,24.908,-88.252
0.702,0.673,0.122,-72.038,27.267,-90.458
0.673,0.699,0.136,-68.450,30.107,-95.779
0.643,0.719,0.174,-65.611,33.885,-98.885
0.613,0.739,0.206,-63.511,34.740,-101.229
0.576,0.747,0.247,-61.336,31.374,-102.962
0.564,0.762,0.255,-58.687,29.084,-103.504
0.547,0.788,0.266,-56.275,26.832,-103.756
0.528,0.793,0.273,-54.115,25.244,-104.046
0.531,0.799,0.277,-51.725,23.023,-104.137
0.509,0.797,0.287,-48.534,22.817,-104.450
0.483,0.802,0.282,-45.191,24.710,-106.221
0.449,0.811,0.288,-41.023,26.794,-109.427
0.415,0.819,0.295,-37.198,27.053,-111.916
0.373,0.828,0.297,-32.550,27.420,-113.466
0.350,0.853,0.301,-28.603,29.145,-112.916
0.330,0.869,0.313,-25.046,29.504,-110.092
0.313,0.877,0.304,-21.244,27.710,-104.901
0.306,0.894,0.303,-16.641,25.359,-97.626
0.297,0.884,0.296,-11.992,25.282,-90.878
0.290,0.885,0.288,-8.649,23.130,-85.962
0.273,0.889,0.295,-7.313,19.832,-83.115
0.261,0.896,0.300,-7.313,14.954,-82.389
0.244,0.902,0.289,-7.214,11.115,-82.061
0.250,0.903,0.287,-7.221,8.985,-81.611
0.234,0.904,0.268,-7.519,8.229,-80.313
0.222,0.907,0.270,-7.885,8.198,-79.053
0.226,0.918,0.257,-6.847,10.626,-77.107
0.216,0.897,0.251,-5.351,14.748,-74.802
0.215,0.900,0.249,-4.542,16.786,-71.504
0.213,0.898,0.255,-4.183,17.221,-68.641
0.202,0.902,0.253,-4.481,17.679,-68.069
0.183,0.906,0.256,-5.122,18.313,-69.443
0.175,0.910,0.278,-6.458,16.924,-71.305
0.158,0.913,0.268,-7.878,14.794,-73.244
0.147,0.911,0.262,-8.954,13.076,-74.824
0.137,0.929,0.271,-9.542,11.878,-75.473
0.119,0.925,0.262,-9.603,11.611,-74.969
0.112,0.925,0.257,-8.618,14.580,-72.893
0.090,0.926,0.260,-8.634,15.374,-70.519
0.075,0.932,0.263,-9.313,15.176,-68.046
0.056,0.940,0.264,-9.962,16.298,-66.069
0.051,0.936,0.272,-10.008,17.664,-63.771
0.034,0.935,0.294,-9.405,18.931,-61.458
0.020,0.932,0.298,-8.916,16.878,-59.733
0.002,0.936,0.305,-8.489,13.710,-58.519
0.008,0.938,0.303,-7.702,9.870,-56.702
0.002,0.935,0.304,-6.740,7.473,-54.420
-0.002,0.936,0.302,-5.695,6.176,-52.603
-0.013,0.932,0.285,-5.084,5.198,-50.763
-0.023,0.948,0.288,-4.954,7.450,-50.191
-0.046,0.943,0.282,-4.718,7.916,-49.802
-0.037,0.953,0.289,-4.489,8.153,-48.038
-0.049,0.938,0.290,-3.389,10.954,-45.557
-0.049,0.937,0.294,-2.809,13.107,-42.511
-0.051,0.924,0.297,-2.740,12.458,-39.809
-0.051,0.925,0.296,-1.985,11.863,-39.015
-0.051,0.922,0.307,-1.733,11.794,-39.611
-0.062,0.920,0.303,-2.153,11.282,-41.626
-0.073,0.940,0.301,-2.595,11.580,-44.160
-0.083,0.938,0.307,-3.115,11.809,-45.496
-0.114,0.947,0.318,-3.015,10.000,-45.374
-0.123,0.936,0.310,-2.687,6.687,-43.412
-0.125,0.939,0.307,-1.779,4.389,-41.130
-0.145,0.939,0.297,-0.794,1.908,-37.901
-0.139,0.935,0.292,-0.290,0.496,-35.344
-0.133,0.936,0.285,0.229,2.855,-32.763
-0.141,0.938,0.283,0.321,5.534,-30.977
-0.144,0.937,0.288,0.374,7.565,-29.740
-0.146,0.945,0.294,0.588,8.473,-28.427
-0.161,0.930,0.299,0.893,7.611,-26.786
-0.165,0.938,0.288,1.076,4.687,-24.267
-0.165,0.934,0.288,0.824,1.527,-21.534
-0.168,0.938,0.287,-0.206,-0.817,-19.718
-0.162,0.934,0.272,-1.450,-1.588,-18.221
-0.152,0.931,0.266,-1.924,0.374,-16.656
-0.160,0.935,0.265,-1.962,3.580,-14.824

-0.374,1.066,0.396,26.496,21.260,9.962
-0.561,1.159,0.472,32.573,26.160,12.565
-0.799,1.234,0.559,35.679,18.099,21.336
-1.029,1.244,0.618,38.573,-4.779,42.893
-1.178,1.214,0.612,47.038,-28.267,81.779
-1.224,1.126,0.562,59.504,-44.282,146.443
-1.246,1.038,0.565,77.427,-47.168,226.931
-1.234,0.911,0.534,99.282,-43.824,250.130
-1.150,0.756,0.525,117.534,-62.992,250.130
-0.918,0.489,0.476,131.038,-98.435,250.130
-0.579,0.313,0.340,140.878,-135.679,250.130
-0.257,0.135,0.163,148.015,-149.931,250.130
0.048,0.034,-0.016,151.504,-140.168,250.130
0.378,-0.038,-0.197,149.809,-117.649,250.130
0.743,-0.084,-0.339,144.763,-78.313,250.130
1.012,-0.060,-0.472,132.031,-42.832,250.130
1.278,-0.038,-0.491,111.588,-15.076,250.130
1.483,-0.062,-0.554,82.626,-1.344,250.130
1.727,-0.003,-0.594,58.366,24.084,250.130
1.759,-0.025,-0.550,34.023,24.611,250.130
1.794,-0.011,-0.534,14.748,13.634,166.580
1.824,0.017,-0.516,-7.779,-7.290,54.198
1.813,-0.006,-0.547,-21.183,2.885,-20.321
1.704,0.004,-0.495,-29.290,29.092,-73.947
1.513,0.061,-0.385,-35.046,54.252,-115.336
1.351,0.128,-0.280,-36.634,69.664,-142.046
1.202,0.156,-0.313,-37.779,70.015,-161.221
1.034,0.209,-0.064,-38.718,61.939,-172.893
0.994,0.281,-0.058,-38.031,54.557,-176.771
0.899,0.310,-0.026,-35.885,53.015,-175.740
0.818,0.395,0.026,-37.580,44.137,-176.031
0.761,0.464,0.052,-43.977,32.863,-178.137
0.699,0.529,0.067,-50.863,25.832,-179.519
0.663,0.565,0.089,-55.344,20.901,-176.198
0.632,0.599,0.091,-56.084,20.176,-170.481
0.621,0.619,0.090,-54.191,21.504,-163.183
0.591,0.636,0.104,-51.748,24.786,-155.511
0.570,0.675,0.121,-51.084,26.450,-148.244
0.543,0.715,0.142,-50.939,24.893,-140.328
0.525,0.734,0.156,-50.840,25.168,-133.679
0.512,0.776,0.160,-49.908,26.977,-128.359
0.478,0.792,0.187,-48.275,29.046,-122.527
0.445,0.791,0.205,-46.290,25.649,-116.023
0.427,0.809,0.205,-44.405,18.885,-109.771
0.422,0.823,0.218,-42.702,15.282,-104.305
0.408,0.838,0.210,-42.107,13.901,-100.458
0.388,0.860,0.237,-43.542,15.252,-98.840
0.370,0.882,0.238,-45.863,16.573,-99.115
0.329,0.894,0.265,-47.458,17.786,-100.573
0.311,0.913,0.272,-46.221,18.679,-100.901
0.281,0.901,0.288,-41.893,20.756,-99.481
0.275,0.916,0.299,-36.313,24.076,-95.817
0.260,0.927,0.297,-30.733,23.840,-89.634
0.250,0.912,0.311,-25.656,22.168,-84.977
0.229,0.914,0.306,-20.939,22.206,-80.947
0.203,0.926,0.326,-18.191,20.679,-79.244
0.192,0.935,0.316,-15.863,14.885,-78.374
0.187,0.927,0.310,-11.931,12.489,-77.939
0.175,0.937,0.307,-8.229,11.977,-76.328
0.166,0.937,0.289,-3.924,10.870,-73.244
0.163,0.940,0.273,-0.298,11.267,-68.977
0.157,0.938,0.260,2.321,12.527,-64.198
0.155,0.936,0.241,3.649,13.397,-60.183
0.161,0.937,0.241,3.328,15.565,-57.122
0.152,0.940,0.243,1.580,17.237,-55.053
0.156,0.939,0.250,-1.122,14.939,-53.695
0.145,0.930,0.226,-3.107,10.626,-52.725
0.156,0.929,0.233,-4.298,6.412,-52.527
0.156,0.922,0.219,-4.756,5.748,-52.931
0.167,0.922,0.222,-5.519,6.198,-53.344
0.152,0.926,0.219,-6.527,4.275,-54.389
0.134,0.915,0.212,-7.565,2.275,-55.305
0.132,0.922,0.198,-8.840,1.863,-56.160
0.130,0.919,0.195,-10.809,5.313,-56.351
0.112,0.941,0.215,-13.985,11.282,-57.481
0.095,0.946,0.240,-16.313,15.954,-58.450
0.074,0.942,0.256,-17.084,18.260,-58.649
0.072,0.945,0.273,-16.221,19.137,-58.107
0.064,0.936,0.289,-14.802,20.046,-57.153
0.060,0.935,0.295,-13.832,19.359,-56.473
0.053,0.935,0.294,-12.733,16.832,-56.328
0.039,0.927,0.290,-11.282,13.481,-56.672
0.030,0.928,0.302,-9.420,9.962,-57.214
0.011,0.938,0.296,-7.962,7.450,-57.794
-0.008,0.941,0.292,-6.305,6.366,-58.282
-0.020,0.945,0.284,-4.534,5.649,-57.115
-0.030,0.940,0.309,-3.435,3.130,-54.687
-0.029,0.952,0.280,-1.901,1.267,-51.725
-0.040,0.941,0.272,-0.176,1.580,-48.954
-0.041,0.939,0.269,0.519,3.328,-46.595
-0.049,0.942,0.269,0.534,5.489,-45.542
-0.048,0.950,0.264,-0.305,7.527,-44.779
-0.068,0.950,0.280,-1.099,8.595,-44.130
-0.073,0.952,0.279,-2.565,7.344,-43.863
-0.091,0.951,0.292,-3.855,3.511,-43.458
-0.100,0.946,0.291,-4.771,-0.924,-43.023
-0.105,0.946,0.283,-5.557,-4.168,-41.656
-0.110,0.940,0.290,-5.153,-5.687,-39.809
-0.113,0.944,0.284,-3.870,-2.481,-37.450
-0.120,0.947,0.279,-2.405,-0.305,-35.840
-0.135,0.946,0.286,-1.198,-0.443,-34.603
-0.131,0.943,0.289,-0.573,-1.550,-33.198
-0.138,0.947,0.280,-0.176,-2.122,-32.267
-0.140,0.940,0.280,0.000,-2.198,-30.641
-0.155,0.945,0.267,-0.053,-3.435,-29.038
-0.145,0.942,0.260,0.298,-3.550,-27.321
-0.145,0.949,0.254,0.481,-0.695,-24.802
-0.151,0.945,0.257,0.206,0.221,-22.809
-0.148,0.944,0.250,-0.489,0.802,-20.672
-0.153,0.938,0.251,-2.000,1.298,-19.008
-0.155,0.935,0.250,-3.672,1.229,-17.221
-0.145,0.937,0.246,-5.252,1.771,-15.901
-0.149,0.935,0.252,-6.290,2.496,-14.893
-0.152,0.939,0.253,-6.870,2.107,-13.794
-0.157,0.927,0.262,-7.267,2.817,-13.313
-0.156,0.939,0.260,-6.885,4.656,-12.740
-0.160,0.936,0.268,-6.656,5.817,-12.321
-0.169,0.926,0.276,-6.221,5.687,-11.275
-0.169,0.928,0.278,-6.160,3.901,-9.649

-0.413,1.079,0.365,4.031,39.115,2.550
-0.628,1.170,0.413,9.000,48.756,5.122
-0.865,1.249,0.486,16.481,50.153,13.137
-1.106,1.157,0.537,25.366,41.573,30.924
-1.183,1.123,0.572,36.122,31.656,75.718
-1.221,1.110,0.594,48.794,34.725,142.695
-1.262,1.096,0.568,67.229,46.649,231.565
-1.350,1.013,0.636,86.496,50.481,250.130
-1.317,0.843,0.708,99.580,14.252,250.130
-1.122,0.615,0.659,109.649,-31.275,250.130
-0.721,0.449,0.557,123.603,-74.626,250.130
-0.406,0.316,0.410,137.748,-106.260,250.130
-0.109,0.192,0.243,151.198,-121.878,250.130
0.186,0.119,0.057,163.168,-115.511,250.130
0.485,0.053,-0.099,171.427,-85.282,250.130
0.781,0.039,-0.221,171.817,-36.092,250.130
1.011,0.034,-0.245,161.137,1.939,250.130
1.226,0.026,-0.284,141.252,21.260,250.130
1.386,0.065,-0.306,116.954,19.947,250.130
1.492,0.077,-0.339,93.519,11.908,250.130
1.615,0.063,-0.393,70.718,-2.145,211.443
1.646,0.087,-0.440,48.809,-19.008,134.458
1.673,0.104,-0.467,28.244,-24.176,68.725
1.650,0.125,-0.501,8.634,-14.176,13.389
1.568,0.155,-0.491,-8.916,7.534,-31.573
1.447,0.178,-0.443,-24.038,32.321,-69.298
1.330,0.210,-0.383,-35.260,46.473,-97.748
1.195,0.223,-0.265,-46.099,46.328,-121.443
1.155,0.282,-0.229,-56.458,33.191,-138.664
1.084,0.265,-0.217,-62.771,28.847,-150.580
1.032,0.296,-0.174,-68.260,25.496,-162.626
0.983,0.314,-0.136,-75.687,21.962,-177.641
0.928,0.374,-0.101,-86.931,21.252,-192.603
