aX,aY,aZ,gX,gY,gZ
0.799,-0.264,-1.374,-44.617,-26.978,-34.119
0.685,-0.294,-1.690,-66.956,-76.599,-33.264
0.440,-0.183,-1.891,-89.417,-162.720,-19.043
0.060,0.104,-1.631,-90.210,-301.758,3.906
-0.185,0.457,-1.138,-47.913,-463.989,27.588
-0.453,0.688,-0.396,-57.861,-608.582,32.349
-0.593,0.810,0.490,-117.126,-709.229,24.719
-0.674,0.911,1.328,-162.781,-762.512,-25.391
-0.731,0.601,2.117,-154.846,-770.081,-95.825
-0.650,0.324,2.856,-162.415,-716.675,-145.935
-0.525,-0.005,3.445,-151.611,-604.919,-170.654
-0.380,-0.397,3.760,-114.197,-451.782,-177.002
-0.262,-0.687,3.718,-81.543,-272.705,-166.504
-0.141,-0.776,3.303,-49.805,-86.792,-140.869
-0.031,-0.778,2.628,2.380,73.120,-96.191
0.062,-0.587,1.976,43.945,177.124,-30.396
0.193,-0.296,1.480,66.101,219.727,28.320
0.326,-0.052,1.129,69.275,214.783,62.195
0.424,0.142,0.897,38.696,175.842,72.510
0.479,0.249,0.826,0.427,125.183,65.247
0.508,0.229,0.881,-20.325,78.308,42.725
0.509,0.133,1.006,-33.081,51.453,19.531
0.508,0.057,1.092,-41.504,49.316,5.615
0.488,-0.034,1.087,-33.142,62.683,-0.549
0.498,-0.117,1.062,-22.156,83.313,-1.343
0.482,-0.176,1.028,-16.846,105.957,2.563
0.473,-0.197,0.971,-15.320,127.747,9.033
0.486,-0.183,0.883,-11.230,146.667,16.296
0.522,-0.145,0.809,-4.883,157.898,22.766
0.544,-0.175,0.756,5.005,157.349,23.804
0.538,-0.157,0.732,11.230,152.466,27.771
0.538,-0.128,0.710,17.517,148.193,35.095
0.555,-0.094,0.692,26.794,144.165,41.443
0.567,-0.041,0.669,31.982,141.113,46.326
0.582,0.018,0.632,33.691,140.747,49.500
0.609,0.097,0.581,33.386,141.113,50.049
0.631,0.115,0.525,38.391,139.099,45.410
0.670,0.099,0.492,35.339,133.606,38.757
0.695,0.060,0.488,23.682,125.977,31.067
0.700,0.051,0.491,12.817,118.835,27.588
0.718,0.035,0.484,14.954,110.229,27.344
0.750,0.051,0.483,14.099,102.173,29.358
0.761,0.067,0.489,9.033,94.788,30.151
0.767,0.067,0.492,2.319,89.233,27.466
0.778,0.063,0.485,-4.395,84.595,23.560
0.788,0.058,0.481,-8.911,79.773,20.081
0.802,0.057,0.479,-9.521,73.730,15.991
0.819,0.049,0.482,-8.240,68.054,13.550
0.818,0.052,0.493,-5.371,62.988,11.658
0.813,0.047,0.497,-3.662,59.937,10.498
0.815,0.061,0.496,-4.028,59.937,10.254
0.824,0.081,0.494,-2.502,61.523,10.315
0.842,0.086,0.492,2.502,62.988,8.850
0.848,0.078,0.490,8.118,63.477,5.005
0.862,0.055,0.486,9.766,64.636,0.610
0.861,0.027,0.471,6.042,66.772,-1.831
0.877,0.011,0.458,-0.122,70.313,-3.235
0.872,-0.006,0.445,-2.319,72.571,-3.784
0.869,-0.027,0.436,-1.343,73.425,-3.418
0.856,-0.029,0.442,-0.977,74.341,-1.831
0.865,-0.029,0.431,2.441,77.515,0.854
0.886,-0.015,0.404,8.301,81.604,5.554
0.879,0.020,0.380,13.123,83.496,10.376
0.896,0.042,0.353,20.020,83.008,12.329
0.897,0.057,0.343,24.048,80.139,11.536
0.874,0.074,0.330,25.696,77.637,9.277
0.891,0.082,0.305,27.283,78.735,6.592
0.889,0.066,0.281,26.489,78.674,3.052
0.890,0.047,0.267,23.621,77.393,-0.549
0.890,0.037,0.260,21.118,75.073,-1.831
0.893,0.032,0.252,22.156,71.960,-2.014
0.892,0.053,0.250,24.048,71.106,-1.892
0.901,0.050,0.229,27.954,71.411,-1.709
0.912,0.041,0.204,26.978,71.045,-3.052
0.919,0.033,0.189,20.447,69.580,-5.371
0.950,0.015,0.177,18.860,67.322,-7.812
0.949,0.006,0.177,20.142,62.927,-7.935
0.963,0.008,0.170,21.606,59.387,-6.531
0.980,-0.006,0.168,20.935,55.969,-6.470
0.980,-0.010,0.185,17.395,52.979,-7.324
0.994,-0.017,0.205,17.578,51.575,-7.263
0.993,-0.020,0.216,19.775,52.063,-5.920
0.997,-0.008,0.216,18.555,55.115,-3.906
0.991,0.002,0.207,16.357,58.350,-2.686
0.989,0.008,0.200,14.648,61.035,-2.747
0.995,-0.002,0.186,14.404,63.538,-3.296
0.987,-0.010,0.160,10.803,64.758,-3.784
0.985,-0.011,0.135,5.798,66.345,-4.272
0.975,-0.022,0.108,5.249,66.589,-3.967
0.982,-0.021,0.093,6.226,65.430,-3.479
0.982,-0.033,0.090,7.141,61.646,-2.380
0.973,-0.044,0.104,6.836,56.458,-1.587
0.985,-0.052,0.107,4.211,54.138,-0.671
0.981,-0.042,0.098,-0.305,53.894,1.831
0.973,-0.005,0.089,-2.747,54.565,4.761
0.980,0.023,0.071,0.916,57.190,7.080
0.981,0.038,0.040,5.432,60.242,7.629
0.968,0.066,0.016,2.563,63.110,7.446
0.962,0.056,-0.013,2.136,65.857,4.700
0.948,0.032,-0.041,3.479,67.322,1.282
0.946,0.012,-0.053,2.686,65.491,-0.122
0.946,-0.012,-0.069,3.479,62.195,-0.427
0.940,-0.003,-0.077,1.770,59.937,1.465
0.935,0.007,-0.095,3.235,59.570,4.272
0.939,0.017,-0.128,6.409,61.462,6.470
0.932,0.038,-0.170,6.897,63.354,8.057
0.911,0.061,-0.210,6.714,65.491,7.874
0.908,0.066,-0.251,11.353,66.589,4.333
0.891,0.068,-0.288,19.348,63.049,0.793
0.880,0.073,-0.314,21.790,57.251,-0.916
0.876,0.046,-0.352,21.484,51.880,-3.845
0.852,0.038,-0.393,18.738,47.974,-6.165
0.827,0.045,-0.448,16.968,45.410,-6.104
0.817,0.029,-0.528,20.508,42.603,-5.737
0.787,0.034,-0.624,20.142,38.025,-4.639
0.758,0.043,-0.741,16.479,31.738,-3.113
0.757,0.072,-0.877,15.625,21.240,-2.563
0.738,0.066,-1.036,20.813,2.991,-2.319
0.701,0.017,-1.218,19.775,-23.132,-4.150

0.547,0.032,-1.529,-15.686,-117.249,-7.446
0.398,0.095,-1.604,-15.442,-192.749,-6.042
0.217,0.224,-1.550,-11.963,-282.593,-4.333
0.072,0.377,-1.308,-17.761,-385.010,-6.470
-0.080,0.426,-0.847,-30.579,-496.765,-19.714
-0.196,0.377,-0.244,-52.856,-595.825,-38.147
-0.274,0.269,0.380,-77.881,-658.936,-55.420
-0.265,0.190,0.909,-102.539,-679.932,-67.871
-0.219,0.131,1.366,-122.620,-665.466,-77.454
-0.116,0.090,1.738,-142.883,-625.244,-81.116
0.009,0.113,2.117,-162.537,-566.956,-77.271
0.108,0.135,2.473,-158.081,-500.427,-69.580
0.178,0.120,2.769,-130.859,-423.645,-64.880
0.247,0.053,2.915,-93.445,-327.881,-63.965
0.274,-0.088,2.839,-50.171,-211.975,-65.613
0.313,-0.236,2.519,-15.503,-91.980,-61.340
0.335,-0.324,2.114,10.010,4.578,-51.025
0.351,-0.351,1.778,30.701,62.073,-35.095
0.397,-0.301,1.528,41.077,88.196,-12.817
0.436,-0.185,1.341,43.884,93.201,9.277
0.454,-0.054,1.188,44.128,89.478,26.062
0.483,0.048,1.076,36.560,88.196,32.166
0.500,0.082,0.997,25.818,86.731,28.015
0.506,0.045,0.907,15.015,84.961,20.264
0.516,0.032,0.850,1.770,80.627,15.625
0.521,0.008,0.831,-2.319,75.378,13.489
0.536,-0.011,0.844,0.427,71.960,14.038
0.555,-0.002,0.881,4.395,71.411,16.724
0.571,0.001,0.916,10.559,74.585,19.226
0.590,0.029,0.933,13.611,83.374,21.057
0.611,0.045,0.911,15.198,96.985,21.118
0.622,0.045,0.862,16.418,112.976,17.639
0.629,0.023,0.794,15.564,126.953,13.123
0.645,-0.012,0.719,11.658,135.803,9.094
0.669,-0.056,0.663,6.836,136.902,5.310
0.681,-0.091,0.638,5.554,130.615,4.639
0.692,-0.105,0.636,7.263,120.728,8.057
0.702,-0.080,0.654,11.047,112.000,12.939
0.717,-0.045,0.675,17.273,106.628,17.639
0.719,-0.001,0.684,23.621,106.079,20.508
0.722,0.029,0.662,28.076,110.840,21.118
0.730,0.042,0.616,30.640,118.713,18.799
0.729,0.055,0.561,31.433,125.183,14.893
0.748,0.040,0.506,34.180,127.563,11.169
0.767,0.011,0.466,32.654,126.099,8.606
0.775,0.031,0.437,23.865,123.535,7.996
0.782,0.013,0.390,24.597,120.850,7.324
0.794,0.019,0.344,24.597,119.324,6.348
0.804,0.031,0.298,23.682,115.417,6.348
0.827,0.026,0.255,24.841,108.154,5.127
0.841,0.015,0.234,22.888,98.694,2.930
0.844,-0.007,0.239,18.555,87.341,1.038
0.872,-0.024,0.264,13.489,74.890,-0.244
0.881,-0.053,0.299,9.766,63.782,-0.732
0.897,-0.072,0.338,5.920,56.274,-0.427
0.903,-0.098,0.361,3.113,53.162,1.282
0.902,-0.097,0.377,0.610,53.833,4.089
0.908,-0.115,0.368,2.075,56.152,5.676
0.907,-0.106,0.360,1.465,59.814,7.446
0.905,-0.081,0.346,2.747,62.805,10.254
0.915,-0.052,0.329,9.277,64.941,11.963
0.931,-0.035,0.309,14.404,65.002,12.329
0.920,-0.024,0.298,15.137,62.073,11.047
0.921,-0.022,0.286,12.817,59.326,8.850
0.926,-0.028,0.288,10.742,56.519,7.507
0.952,-0.042,0.295,9.460,53.040,6.470
0.944,-0.049,0.301,7.874,50.842,6.714
0.954,-0.035,0.306,4.456,52.063,8.118
0.953,-0.030,0.291,4.761,56.580,8.362
0.943,-0.023,0.266,5.920,61.768,7.812
0.953,-0.031,0.231,7.019,66.223,5.981
0.957,-0.042,0.204,7.996,67.932,3.784
0.956,-0.041,0.187,9.338,67.383,3.418
0.962,-0.047,0.177,14.832,64.148,3.784
0.956,-0.053,0.183,18.311,58.899,4.578
0.973,-0.062,0.194,17.090,53.589,5.920
0.971,-0.061,0.201,13.245,50.171,7.324
0.959,-0.037,0.194,10.803,51.270,8.789
0.966,-0.014,0.158,13.489,55.786,9.766
0.978,0.009,0.116,15.564,60.425,9.338
0.979,0.022,0.076,15.137,61.768,7.996
0.981,0.030,0.046,13.550,58.167,6.042
0.982,0.031,0.023,13.184,52.002,4.150
0.973,0.027,0.020,12.817,44.983,2.686
0.972,-0.003,0.038,10.132,36.316,1.343
0.975,-0.044,0.081,3.296,27.222,0.122
0.945,-0.061,0.131,-4.272,21.606,1.099
0.949,-0.045,0.154,-6.836,20.813,4.028
0.964,-0.015,0.145,-2.686,24.414,6.897
0.981,0.026,0.109,0.000,30.457,8.118
1.002,0.055,0.065,1.099,35.950,5.737
1.006,0.056,0.036,2.014,37.231,1.038
1.003,0.017,0.027,2.380,34.302,-3.723
0.988,-0.022,0.040,0.732,29.419,-7.690
0.982,-0.056,0.052,1.038,25.024,-8.545
0.982,-0.066,0.056,2.625,22.705,-6.958
0.984,-0.057,0.047,4.211,22.278,-4.700
0.989,-0.053,0.033,6.714,21.973,-3.601
0.991,-0.056,0.027,6.531,20.752,-3.967
0.988,-0.062,0.027,4.150,19.592,-4.211
0.988,-0.062,0.031,3.418,18.677,-3.784
0.993,-0.063,0.038,4.822,17.517,-2.991
1.000,-0.066,0.042,5.249,17.212,-1.892
1.001,-0.070,0.039,3.174,17.700,-1.343
1.001,-0.070,0.031,0.977,19.165,-1.404
1.004,-0.071,0.018,1.038,20.508,-1.160
1.003,-0.062,0.006,2.258,20.813,-0.488
1.005,-0.056,0.001,3.601,20.081,0.549
1.003,-0.055,0.000,3.662,18.250,1.038
1.000,-0.057,0.001,3.296,16.724,0.916
0.991,-0.052,0.001,2.808,16.052,1.282
0.988,-0.036,-0.003,2.747,15.564,2.319
0.993,-0.023,-0.015,4.700,14.282,2.930
0.990,-0.008,-0.016,4.761,12.390,3.052
0.998,-0.001,-0.011,3.235,9.277,2.625
1.000,-0.005,0.002,2.014,5.493,1.648
0.998,-0.007,0.021,-0.366,3.113,0.916
1.001,-0.008,0.033,-1.770,2.502,0.488
1.000,-0.011,0.043,-0.977,2.625,-0.061

0.609,-0.010,-1.301,-55.603,-91.858,7.446
0.494,0.150,-1.411,-45.715,-149.109,12.146
0.362,0.283,-1.393,-27.161,-228.821,8.362
0.191,0.377,-1.210,-13.428,-321.838,-3.967
0.096,0.408,-0.894,-12.695,-411.011,-23.621
-0.035,0.359,-0.504,-27.039,-484.497,-47.241
-0.124,0.287,-0.133,-50.293,-525.085,-69.458
-0.147,0.192,0.186,-70.618,-539.307,-86.182
-0.147,0.126,0.537,-89.844,-549.377,-92.896
-0.131,0.135,0.937,-114.380,-564.453,-90.515
-0.073,0.143,1.396,-130.432,-572.510,-91.248
-0.030,0.146,1.862,-140.381,-569.458,-90.088
-0.020,0.164,2.330,-146.790,-547.607,-83.923
0.008,0.121,2.715,-137.207,-488.464,-85.144
0.054,-0.009,2.900,-121.460,-386.108,-92.224
0.097,-0.216,2.849,-101.624,-258.362,-99.365
0.116,-0.381,2.631,-79.224,-138.367,-93.445
0.120,-0.435,2.293,-46.082,-45.959,-70.862
0.161,-0.352,1.956,-14.465,11.475,-32.715
0.222,-0.280,1.735,6.775,47.729,-2.686
0.268,-0.168,1.559,21.545,63.660,14.709
0.307,-0.014,1.434,17.700,68.970,32.776
0.327,0.102,1.326,9.460,74.097,38.452
0.358,0.149,1.216,0.610,85.327,32.532
0.395,0.125,1.102,-3.662,102.966,19.958
0.407,0.060,1.005,-2.625,118.286,9.216
0.446,0.001,0.917,2.258,124.023,5.737
0.447,-0.007,0.872,9.644,118.958,9.705
0.469,0.006,0.888,19.531,111.816,15.320
0.473,-0.003,0.925,33.142,109.558,18.433
0.491,-0.016,0.934,41.199,115.601,19.226
0.503,-0.022,0.916,40.039,126.709,18.738
0.548,-0.021,0.884,39.795,137.634,16.846
0.532,-0.068,0.835,42.908,147.095,14.771
0.564,-0.124,0.788,41.321,154.541,10.742
0.583,-0.168,0.758,35.156,156.006,10.193
0.592,-0.156,0.754,31.006,152.649,14.282
0.609,-0.165,0.749,38.635,147.522,20.325
0.624,-0.155,0.734,46.265,143.433,26.611
0.643,-0.120,0.704,44.373,143.127,31.311
0.659,-0.092,0.661,43.823,145.508,33.020
0.660,-0.052,0.608,46.204,147.949,33.813
0.683,-0.019,0.547,52.795,147.766,34.058
0.707,0.009,0.500,58.533,144.104,33.508
0.725,0.027,0.469,59.448,138.306,31.006
0.740,0.021,0.442,58.105,131.042,26.489
0.753,0.010,0.424,53.650,124.268,22.522
0.778,-0.004,0.404,46.753,117.493,19.775
0.791,-0.019,0.387,38.147,110.779,17.639
0.807,-0.028,0.365,29.358,105.469,16.052
0.816,-0.035,0.346,24.170,100.403,15.015
0.822,-0.016,0.344,22.888,94.910,14.893
0.839,-0.015,0.349,27.222,87.646,15.381
0.851,-0.023,0.349,30.640,80.811,13.855
0.847,-0.014,0.355,26.855,75.806,11.841
0.864,-0.039,0.352,25.757,70.740,9.338
0.887,-0.076,0.366,21.790,64.941,6.958
0.892,-0.106,0.394,10.803,59.692,5.859
0.893,-0.128,0.403,4.211,57.739,6.104
0.890,-0.116,0.410,3.174,59.326,8.667
0.900,-0.099,0.387,10.803,63.110,11.963
0.898,-0.063,0.354,18.799,67.017,14.526
0.907,-0.036,0.329,24.231,69.885,14.099
0.919,-0.043,0.311,28.381,70.251,11.597
0.922,-0.036,0.313,25.208,69.031,9.033
0.921,-0.033,0.319,23.010,67.932,7.935
0.930,-0.046,0.310,24.780,67.688,6.775
0.929,-0.057,0.291,22.888,69.580,5.188
0.932,-0.066,0.256,20.508,73.486,3.967
0.917,-0.062,0.224,19.043,75.928,4.456
0.934,-0.068,0.191,21.423,75.989,4.883
0.952,-0.056,0.189,22.339,71.960,5.676
0.949,-0.068,0.204,24.597,65.796,6.226
0.951,-0.094,0.232,26.062,61.890,6.226
0.961,-0.086,0.259,20.752,61.218,7.629
0.963,-0.104,0.256,21.179,63.293,8.362
0.965,-0.092,0.229,20.142,68.604,9.033
0.957,-0.068,0.180,19.409,73.914,10.925
0.970,-0.042,0.121,20.447,75.989,11.902
0.957,-0.025,0.077,20.752,74.036,10.742
0.954,-0.015,0.038,20.081,69.092,8.667
0.955,-0.015,0.009,19.409,61.462,6.226
0.953,-0.027,-0.004,16.663,52.917,3.418
0.954,-0.041,-0.006,12.756,44.067,0.977
0.956,-0.060,0.000,9.399,35.583,-0.305
0.958,-0.076,0.011,5.798,28.442,-0.488
0.966,-0.090,0.020,2.014,22.827,0.549
0.968,-0.086,0.031,-2.014,19.653,2.075
0.972,-0.080,0.030,-4.150,17.883,3.418
0.984,-0.074,0.027,-4.883,15.564,4.211
0.974,-0.069,0.020,-4.578,12.573,4.456
0.979,-0.052,0.021,-4.822,9.460,4.883
0.984,-0.048,0.025,-2.625,6.714,4.700
0.983,-0.035,0.043,-2.197,3.113,3.967
0.983,-0.026,0.064,-1.709,0.366,2.686
0.984,-0.027,0.081,0.305,-0.916,0.977
0.984,-0.021,0.098,0.793,-1.099,-0.610
0.991,-0.037,0.108,1.648,-1.099,-1.892
0.992,-0.068,0.118,0.732,-0.549,-3.540
0.992,-0.088,0.129,-1.648,0.671,-4.089
1.001,-0.113,0.120,-1.404,1.892,-2.930
1.001,-0.101,0.121,-3.418,1.953,-1.099
1.007,-0.103,0.130,-2.625,1.343,0.183
1.004,-0.102,0.132,2.258,1.892,1.587
1.005,-0.083,0.132,3.174,2.869,3.235
1.005,-0.069,0.131,5.005,3.662,3.845
1.001,-0.058,0.130,6.653,3.906,3.723
1.001,-0.052,0.132,6.653,4.211,2.991
0.997,-0.047,0.135,5.676,5.005,1.953
0.997,-0.061,0.127,4.211,5.920,1.099
0.992,-0.065,0.123,0.732,6.958,0.427
0.991,-0.069,0.122,-1.282,7.935,0.610
0.992,-0.081,0.116,0.183,8.423,0.671
0.992,-0.079,0.109,0.610,9.094,1.404
0.991,-0.073,0.098,1.709,9.583,2.075
0.994,-0.061,0.088,3.601,10.193,2.380
0.991,-0.054,0.077,5.920,10.010,2.075
0.989,-0.047,0.066,5.859,9.766,1.465
0.986,-0.040,0.053,4.395,9.155,0.366

0.406,0.073,-1.549,-30.518,-132.507,-22.949
0.265,0.180,-1.583,-1.953,-224.976,-22.522
0.111,0.276,-1.372,15.137,-341.675,-26.306
-0.090,0.321,-0.963,-2.930,-453.064,-39.673
-0.213,0.279,-0.490,-44.067,-534.729,-61.646
-0.327,0.199,-0.026,-72.327,-588.440,-80.261
-0.375,0.171,0.431,-89.172,-621.521,-86.243
-0.351,0.163,0.922,-95.764,-646.057,-85.815
-0.249,0.111,1.456,-94.116,-664.917,-88.989
-0.190,0.006,2.002,-103.516,-670.288,-93.567
-0.167,-0.061,2.611,-133.423,-641.663,-91.980
-0.046,-0.065,3.145,-155.457,-556.335,-80.322
0.036,-0.118,3.340,-140.137,-418.579,-72.205
0.107,-0.232,3.151,-102.356,-249.817,-69.580
0.098,-0.261,2.691,-60.913,-92.285,-60.364
0.188,-0.316,2.114,-17.700,12.268,-39.185
0.196,-0.363,1.747,7.019,60.791,-25.757
0.205,-0.348,1.522,19.043,63.293,-5.066
0.239,-0.225,1.403,23.437,50.476,23.865
0.273,-0.058,1.351,27.832,35.461,46.082
0.305,0.129,1.359,21.240,26.917,56.763
0.341,0.253,1.327,8.240,32.227,55.115
0.355,0.302,1.189,-5.554,53.345,39.612
0.383,0.250,0.995,-17.395,83.008,16.052
0.387,0.132,0.783,-26.489,105.835,-4.822
0.394,0.012,0.620,-27.161,119.141,-18.921
0.424,-0.078,0.525,-15.015,117.859,-21.973
0.458,-0.125,0.487,-0.122,99.548,-14.709
0.461,-0.129,0.503,8.545,70.374,-4.150
0.493,-0.117,0.571,13.550,41.870,4.639
0.517,-0.089,0.689,15.686,19.958,11.169
0.526,-0.060,0.831,16.724,3.296,15.991
0.528,-0.018,0.987,15.076,-6.958,20.447
0.531,0.018,1.119,11.475,-9.460,22.339
0.510,0.048,1.214,6.104,-1.099,21.057
0.485,0.068,1.258,0.427,20.325,16.235
0.490,0.054,1.236,-0.427,51.392,9.094
0.490,0.024,1.155,0.610,82.214,2.075
0.492,-0.031,1.029,5.127,108.704,-2.319
0.503,-0.097,0.900,12.451,130.371,-6.897
0.501,-0.149,0.803,18.738,143.005,-7.629
0.516,-0.171,0.731,30.701,141.174,-1.160
0.550,-0.128,0.708,40.100,129.883,11.841
0.592,-0.069,0.729,46.021,115.173,24.719
0.598,-0.036,0.762,50.354,102.173,31.494
0.620,0.025,0.786,41.077,97.839,33.508
0.642,0.090,0.787,27.649,102.234,31.738
0.673,0.123,0.780,20.569,111.145,25.818
0.669,0.116,0.757,20.264,121.704,17.212
0.667,0.088,0.715,22.766,131.531,9.521
0.667,0.061,0.655,26.550,137.634,3.845
0.684,0.031,0.587,27.466,139.099,0.061
0.711,-0.036,0.526,24.170,137.146,-4.272
0.723,-0.099,0.484,16.174,130.432,-8.057
0.734,-0.139,0.455,9.277,122.009,-7.812
0.749,-0.163,0.440,11.108,112.732,-3.967
0.760,-0.151,0.444,17.395,102.356,2.441
0.790,-0.131,0.460,27.161,91.797,10.376
0.798,-0.113,0.481,33.264,83.374,16.174
0.809,-0.087,0.496,29.907,81.360,18.738
0.821,-0.037,0.502,23.804,84.045,19.287
0.825,-0.036,0.486,26.001,88.196,17.944
0.830,-0.040,0.465,25.513,92.346,14.893
0.839,-0.035,0.444,20.020,94.788,12.024
0.859,-0.036,0.442,20.142,94.238,10.132
0.857,-0.073,0.437,27.832,91.248,9.155
0.870,-0.066,0.439,29.175,89.905,9.399
0.868,-0.065,0.436,30.884,89.905,10.742
0.881,-0.087,0.427,35.156,91.064,11.475
0.887,-0.093,0.418,33.997,91.858,13.062
0.888,-0.112,0.406,30.823,90.942,13.794
0.899,-0.093,0.384,24.475,91.858,15.625
0.897,-0.083,0.347,23.804,93.018,17.517
0.906,-0.056,0.308,25.635,93.994,18.921
0.914,-0.027,0.278,28.076,93.140,20.264
0.920,-0.006,0.258,29.053,90.149,20.752
0.915,-0.003,0.254,28.503,85.632,19.165
0.933,0.006,0.265,24.780,81.116,17.090
0.940,0.001,0.282,23.010,78.003,15.015
0.934,-0.014,0.282,21.179,79.712,13.306
0.930,-0.024,0.260,16.968,85.754,11.902
0.930,-0.022,0.220,13.367,91.492,11.230
0.927,-0.023,0.160,15.930,94.360,10.986
0.929,-0.009,0.110,18.250,94.116,10.742
0.940,-0.006,0.069,19.592,89.417,9.766
0.951,-0.012,0.046,19.531,81.421,7.751
0.948,-0.020,0.038,16.418,72.815,5.981
0.951,-0.021,0.042,13.855,64.941,4.944
0.965,-0.038,0.050,13.550,57.312,4.822
0.965,-0.047,0.061,10.864,50.964,5.127
0.975,-0.043,0.068,5.066,47.485,5.493
0.968,-0.055,0.064,2.747,45.288,6.104
0.972,-0.042,0.054,1.038,44.556,7.202
0.985,-0.035,0.053,1.953,42.297,7.629
0.993,-0.029,0.077,2.014,38.635,7.996
0.995,-0.024,0.100,2.991,37.781,7.385
0.994,-0.027,0.105,6.897,39.795,6.409
1.000,-0.021,0.106,9.338,42.847,5.920
0.995,-0.028,0.099,11.475,45.532,4.944
0.997,-0.034,0.082,11.902,47.791,3.845
0.991,-0.035,0.051,11.719,49.438,3.296
0.990,-0.036,0.015,12.085,50.659,2.808
0.992,-0.036,-0.009,11.230,49.438,2.869
0.990,-0.034,-0.024,8.667,45.410,2.991
0.987,-0.038,-0.032,5.676,41.382,3.174
0.992,-0.041,-0.036,2.930,37.842,3.174
0.990,-0.045,-0.033,1.831,34.424,4.028
0.987,-0.055,-0.027,1.587,31.616,4.822
0.999,-0.057,-0.018,1.587,29.419,5.371
1.005,-0.062,-0.001,2.441,27.527,6.714
0.999,-0.054,0.007,3.662,26.978,8.545
1.000,-0.037,-0.001,4.578,29.358,9.888
1.003,-0.018,-0.024,5.737,31.738,10.498
0.993,0.012,-0.039,5.676,32.288,10.620
0.992,0.029,-0.060,8.179,31.311,9.033
0.995,0.031,-0.082,10.681,29.236,6.226
0.982,0.027,-0.093,8.362,26.123,3.601
0.984,0.014,-0.105,5.310,23.254,0.793
0.987,-0.011,-0.110,2.808,19.348,-0.916

0.321,0.110,-1.573,-31.799,-186.768,-30.640
0.295,0.181,-1.536,-12.085,-269.104,-38.757
-0.083,0.085,-1.340,22.034,-373.047,-59.387
-0.299,0.093,-1.062,17.456,-470.032,-63.049
-0.331,0.139,-0.636,-48.950,-554.321,-63.416
-0.456,0.208,-0.142,-109.375,-631.104,-69.092
-0.441,0.251,0.389,-132.935,-688.538,-68.909
-0.408,0.185,0.967,-137.695,-731.323,-77.698
-0.345,0.116,1.645,-136.719,-758.301,-87.524
-0.225,0.077,2.292,-138.794,-764.160,-88.684
-0.173,0.033,2.968,-136.292,-717.896,-83.435
-0.037,-0.007,3.454,-131.897,-595.947,-75.317
0.008,-0.088,3.604,-122.192,-420.593,-71.350
0.093,-0.182,3.364,-98.389,-221.558,-68.542
0.122,-0.255,2.786,-65.186,-44.312,-58.716
0.123,-0.253,2.179,-30.396,71.960,-41.626
0.185,-0.214,1.735,-5.798,125.549,-20.142
0.189,-0.148,1.480,3.357,130.371,0.793
0.299,-0.045,1.357,7.446,110.535,18.799
0.332,0.041,1.279,12.939,92.773,30.457
0.371,0.126,1.210,14.099,89.294,33.691
0.413,0.162,1.128,15.991,100.891,30.029
0.433,0.141,1.026,20.874,117.798,22.278
0.457,0.105,0.903,21.179,135.864,14.038
0.466,0.070,0.764,17.700,154.724,6.531
0.486,0.011,0.635,20.630,170.593,0.061
0.532,-0.054,0.519,27.039,174.194,-2.014
0.563,-0.092,0.454,31.982,160.767,0.183
0.576,-0.132,0.436,38.696,139.709,3.601
0.618,-0.147,0.468,38.757,117.188,7.568
0.658,-0.162,0.541,36.255,93.323,12.146
0.673,-0.168,0.643,30.396,72.693,15.808
0.688,-0.151,0.751,21.240,61.218,19.226
0.698,-0.138,0.829,16.602,58.716,22.766
0.692,-0.122,0.884,15.320,63.782,25.452
0.719,-0.104,0.929,15.991,73.120,27.039
0.703,-0.087,0.962,18.494,84.961,28.748
0.672,-0.074,0.951,23.682,102.905,29.297
0.666,-0.056,0.889,30.884,125.122,29.480
0.662,-0.042,0.803,38.025,145.386,29.846
0.674,-0.040,0.701,41.260,159.912,29.297
0.704,-0.045,0.607,39.063,166.626,27.649
0.715,-0.031,0.523,33.020,166.443,26.978
0.728,-0.015,0.450,31.616,159.302,27.344
0.752,0.006,0.395,32.532,147.217,28.137
0.785,0.029,0.363,32.410,132.751,28.137
0.814,0.060,0.366,29.236,118.408,27.039
0.811,0.063,0.372,27.954,106.262,23.132
0.830,0.052,0.372,25.146,98.755,18.860
0.851,0.029,0.381,17.029,93.933,15.076
0.853,0.003,0.401,7.996,90.454,10.925
0.859,-0.011,0.405,5.371,89.600,7.812
0.860,-0.034,0.387,10.620,91.187,7.568
0.870,-0.045,0.351,15.564,93.811,7.996
0.875,-0.040,0.313,15.564,95.886,8.850
0.888,-0.053,0.272,16.296,96.497,7.935
0.883,-0.068,0.236,16.846,94.543,6.592
0.890,-0.060,0.214,12.634,90.637,7.080
0.933,-0.061,0.214,11.658,83.191,8.484
0.914,-0.047,0.245,13.245,72.449,11.047
0.919,-0.032,0.270,16.174,65.918,14.038
0.924,-0.027,0.276,16.296,65.491,14.771
0.950,-0.001,0.288,11.108,67.749,13.794
0.925,0.001,0.286,12.024,71.533,12.573
0.920,-0.008,0.250,19.043,76.965,11.414
0.938,-0.014,0.208,18.677,81.482,10.376
0.945,-0.015,0.193,13.977,80.872,9.399
0.949,-0.042,0.185,12.634,75.623,8.179
0.958,-0.040,0.187,9.888,71.106,8.118
0.956,-0.030,0.186,10.193,68.298,9.766
0.964,-0.025,0.192,14.099,64.514,11.658
0.985,-0.003,0.202,13.916,60.791,13.184
0.971,0.008,0.206,12.024,59.021,13.672
0.975,0.014,0.195,10.315,61.218,12.451
0.970,0.017,0.178,8.362,65.125,10.315
0.966,0.024,0.172,7.874,66.650,8.972
0.965,0.028,0.168,12.146,67.383,8.362
0.968,0.032,0.164,13.123,68.726,7.751
0.979,0.029,0.164,10.071,68.909,6.653
0.990,0.019,0.161,4.395,69.763,5.066
0.987,0.002,0.149,-1.343,73.303,3.296
0.987,-0.014,0.130,-5.310,78.674,2.991
0.985,-0.021,0.093,-6.348,85.510,4.211
0.974,-0.026,0.041,-4.333,92.773,4.395
0.964,-0.031,-0.012,-1.709,97.107,4.517
0.969,-0.022,-0.052,0.916,95.642,5.554
0.987,-0.034,-0.083,4.700,87.891,6.348
0.981,-0.037,-0.098,3.723,77.637,7.019
0.976,-0.021,-0.104,-1.038,70.374,8.911
0.973,-0.015,-0.123,-1.404,66.040,9.766
0.963,-0.003,-0.140,-1.526,62.927,10.498
0.968,0.019,-0.151,-2.197,58.838,11.169
0.986,0.038,-0.156,-2.075,53.589,11.047
0.968,0.033,-0.152,-1.404,48.950,9.155
0.967,0.025,-0.163,-2.380,47.546,6.470
0.977,0.012,-0.176,-3.540,47.302,4.333
0.967,-0.009,-0.180,-2.625,44.739,2.686
0.981,-0.010,-0.179,-2.991,40.894,2.747
0.975,-0.004,-0.171,-2.625,36.499,4.028
0.976,0.011,-0.172,-1.648,33.813,5.310
0.984,0.020,-0.186,-1.282,33.386,5.676
0.980,0.023,-0.200,-2.075,32.288,4.028
0.975,0.013,-0.216,-2.625,30.579,1.770
0.988,-0.000,-0.222,-3.052,27.222,0.610
0.986,-0.019,-0.210,-2.930,21.118,0.244
0.997,-0.029,-0.189,-2.502,14.954,1.160
0.985,-0.021,-0.165,-1.831,11.353,3.113
0.996,-0.000,-0.159,1.343,10.620,5.310
0.992,0.010,-0.161,5.676,10.803,5.798
0.991,0.023,-0.158,5.737,11.169,5.371
1.001,0.031,-0.150,4.089,10.193,4.517
1.000,0.023,-0.136,3.418,8.789,3.235
1.000,0.018,-0.131,1.831,9.399,2.747
0.993,0.018,-0.134,-0.122,11.658,2.808
0.992,0.019,-0.145,-1.648,13.306,3.235
0.992,0.023,-0.156,-2.258,14.526,3.113
0.986,0.022,-0.168,-2.014,14.709,2.991
0.990,0.018,-0.179,-2.075,13.977,2.380
0.994,0.015,-0.183,-2.319,12.573,1.465

-0.272,0.340,2.575,-186.646,-745.178,-0.732
-0.279,0.460,3.160,-178.223,-685.059,4.272
-0.227,0.478,3.483,-155.884,-559.692,-6.714
-0.174,0.363,3.516,-121.460,-389.709,-32.776
-0.105,0.165,3.261,-81.665,-206.543,-55.237
-0.043,0.001,2.794,-40.283,-42.053,-59.143
0.000,-0.062,2.288,3.479,79.529,-48.035
0.041,-0.062,1.874,47.913,150.146,-26.672
0.121,-0.036,1.558,80.078,176.575,-1.892
0.199,0.025,1.285,85.205,173.157,19.836
0.246,0.099,1.049,71.167,151.245,33.997
0.295,0.167,0.943,50.537,119.934,36.804
0.356,0.196,0.918,31.433,92.163,30.334
0.390,0.151,0.938,18.921,75.317,17.029
0.380,0.093,0.947,14.343,67.688,6.287
0.406,0.083,0.956,10.742,70.496,3.418
0.442,0.067,0.952,15.320,79.102,2.502
0.459,0.031,0.942,24.292,88.867,0.916
0.458,0.017,0.916,26.367,98.389,0.977
0.470,0.013,0.864,24.902,109.680,1.038
0.490,0.001,0.800,24.963,121.399,-0.427
0.511,-0.056,0.746,25.330,128.296,-2.747
0.560,-0.084,0.714,19.348,128.967,-5.310
0.556,-0.115,0.713,14.587,121.582,-4.211
0.588,-0.157,0.722,18.127,109.009,-3.113
0.624,-0.158,0.778,18.311,95.642,-0.183
0.637,-0.164,0.837,21.240,84.167,5.798
0.612,-0.155,0.869,25.757,80.811,13.123
0.611,-0.113,0.877,25.696,85.754,20.203
0.625,-0.047,0.867,27.954,93.750,25.513
0.611,-0.026,0.859,38.574,102.600,25.269
0.635,-0.046,0.812,46.204,115.906,20.996
0.650,-0.035,0.770,37.598,126.648,19.409
0.646,-0.015,0.733,28.931,133.606,19.043
0.676,-0.026,0.685,30.273,138.000,17.700
0.699,-0.026,0.641,32.166,139.343,18.250
0.701,-0.032,0.592,32.410,138.123,19.104
0.721,-0.016,0.552,26.733,136.414,19.592
0.743,-0.010,0.516,21.484,132.080,18.982
0.774,-0.002,0.507,20.508,125.671,18.066
0.772,-0.010,0.503,24.109,118.164,17.212
0.781,-0.008,0.500,26.550,113.525,16.602
0.803,-0.005,0.491,28.870,110.046,16.785
0.809,-0.015,0.474,29.724,107.178,16.357
0.822,-0.023,0.458,25.757,105.286,15.076
0.833,-0.015,0.451,18.494,104.065,13.367
0.844,-0.030,0.441,18.005,102.417,12.207
0.839,-0.042,0.420,20.203,103.088,11.353
0.842,-0.032,0.392,20.569,104.797,11.902
0.846,-0.019,0.352,23.315,105.286,13.733
0.858,-0.002,0.314,25.757,104.553,14.404
0.876,-0.009,0.280,26.245,101.074,13.062
0.887,-0.019,0.265,21.545,94.849,10.498
0.887,-0.031,0.260,14.587,87.891,8.728
0.902,-0.028,0.263,10.925,81.665,8.789
0.894,-0.018,0.277,12.146,76.599,10.010
0.909,-0.004,0.280,16.846,72.571,11.719
0.916,0.008,0.277,18.860,69.458,12.695
0.919,0.018,0.271,16.296,68.604,11.719
0.914,0.001,0.256,14.221,70.984,8.423
0.929,-0.001,0.244,11.658,74.402,5.493
0.930,-0.016,0.235,13.062,75.256,3.784
0.934,-0.027,0.228,15.320,75.317,3.296
0.934,-0.030,0.218,15.686,74.585,4.395
0.948,-0.021,0.205,13.855,72.510,6.409
0.954,-0.018,0.194,12.146,70.435,7.629
0.961,-0.003,0.186,10.437,69.458,7.935
0.958,0.003,0.179,10.620,68.481,8.606
0.954,0.011,0.172,11.841,68.604,8.545
0.965,0.004,0.156,11.841,69.275,7.568
0.966,-0.001,0.144,7.812,69.214,6.409
0.970,-0.008,0.136,3.662,67.810,5.371
0.966,-0.012,0.135,3.052,65.735,4.944
0.970,-0.018,0.125,5.554,65.186,5.493
0.976,-0.019,0.114,7.080,65.796,5.981
0.970,-0.012,0.102,7.324,66.406,6.714
0.984,-0.008,0.081,9.277,67.383,7.385
0.976,-0.007,0.069,11.047,66.956,7.202
0.973,-0.008,0.058,11.292,65.186,7.080
0.983,-0.006,0.044,10.437,64.453,6.836
0.973,-0.008,0.031,9.583,63.416,6.592
0.977,-0.010,0.016,8.789,62.561,5.859
0.977,-0.011,-0.002,7.996,61.890,5.554
0.990,0.002,-0.019,6.287,60.181,6.042
0.975,0.006,-0.027,5.432,57.800,6.287
0.981,0.020,-0.043,4.089,55.908,5.859
0.985,0.035,-0.049,2.075,53.345,4.517
0.980,0.026,-0.055,3.296,50.049,2.258
0.982,0.006,-0.071,4.700,48.767,-0.244
0.977,-0.011,-0.080,2.747,47.791,-1.587
0.999,-0.030,-0.083,1.526,44.189,-1.587
0.989,-0.033,-0.068,-0.610,38.940,-0.854
0.988,-0.022,-0.059,-0.977,36.987,0.793
1.003,-0.012,-0.071,1.831,37.964,2.380
0.987,-0.004,-0.080,2.319,38.757,3.540
0.974,0.016,-0.099,1.099,39.734,4.150
0.982,0.018,-0.129,2.869,41.382,3.174
0.981,0.005,-0.146,3.479,39.001,1.343
0.983,0.006,-0.147,-0.122,34.668,0.305
0.981,0.006,-0.145,-1.282,29.846,0.061
0.980,0.012,-0.141,-0.183,26.123,-0.183
0.987,0.010,-0.141,0.610,22.461,-0.488
0.996,-0.002,-0.135,-0.549,18.555,-1.160
0.993,-0.018,-0.123,-4.150,15.686,-1.709
1.000,-0.033,-0.113,-6.592,13.916,-1.831
1.002,-0.042,-0.104,-6.470,12.695,-1.282
1.002,-0.043,-0.098,-4.272,12.451,-0.366
1.009,-0.042,-0.102,-1.953,12.878,1.099
1.003,-0.025,-0.102,-0.977,13.367,2.380
1.005,-0.011,-0.102,0.916,13.977,3.113
1.002,-0.004,-0.099,2.991,14.832,2.747
1.013,-0.006,-0.093,3.174,14.954,2.014
1.003,-0.012,-0.084,1.282,15.381,0.793
1.000,-0.015,-0.093,0.305,17.700,0.244
1.000,-0.021,-0.113,0.732,20.081,0.244
1.007,-0.032,-0.135,0.366,21.057,0.427
0.983,-0.034,-0.142,-2.136,21.423,0.916
0.989,-0.026,-0.156,-1.892,21.423,1.831
0.990,-0.022,-0.171,0.732,20.386,2.991

0.440,0.077,-1.558,44.556,-68.420,-47.729
0.338,0.079,-1.620,74.402,-143.433,-56.824
0.237,0.082,-1.489,71.228,-239.441,-63.965
0.134,0.075,-1.165,39.124,-341.614,-69.946
0.077,0.054,-0.782,0.610,-432.556,-75.562
0.010,0.027,-0.410,-31.738,-499.634,-80.505
-0.049,-0.011,-0.074,-53.528,-541.016,-84.900
-0.044,-0.034,0.188,-67.749,-561.340,-86.060
-0.010,-0.083,0.445,-76.965,-569.519,-88.013
0.016,-0.141,0.723,-85.754,-575.378,-88.501
0.087,-0.200,1.033,-99.792,-579.834,-81.665
0.138,-0.183,1.383,-123.047,-580.750,-67.810
0.154,-0.055,1.736,-150.269,-572.815,-48.645
0.153,0.097,2.080,-160.156,-548.767,-32.349
0.163,0.183,2.361,-142.944,-498.108,-27.649
0.169,0.179,2.537,-118.835,-424.011,-31.250
0.161,0.140,2.632,-103.516,-333.313,-38.879
0.163,0.024,2.609,-85.876,-233.459,-52.368
0.174,-0.114,2.465,-66.833,-132.996,-62.988
0.196,-0.218,2.227,-49.683,-40.771,-61.523
0.212,-0.263,1.957,-29.968,33.569,-48.218
0.245,-0.227,1.692,-7.263,86.060,-25.940
0.276,-0.169,1.440,16.418,118.652,-3.113
0.329,-0.107,1.198,30.823,134.583,15.503
0.360,-0.023,1.016,30.151,134.644,27.283
0.400,0.039,0.894,24.536,127.380,29.236
0.441,0.057,0.802,23.132,115.417,23.743
0.469,0.052,0.763,19.714,101.501,15.930
0.499,0.030,0.775,14.587,88.074,8.728
0.511,0.002,0.820,11.658,77.148,3.967
0.537,-0.005,0.871,9.521,71.777,2.502
0.568,-0.032,0.911,10.559,70.190,1.587
0.571,-0.073,0.949,8.728,72.937,1.160
0.563,-0.062,0.975,0.000,82.764,1.709
0.579,-0.052,0.978,1.038,96.497,2.808
0.592,-0.111,0.972,14.099,112.366,0.244
0.601,-0.173,0.947,15.259,132.019,-3.845
0.598,-0.212,0.909,6.287,150.513,-4.944
0.583,-0.233,0.856,5.188,165.955,-3.052
0.609,-0.241,0.794,15.198,174.377,3.418
0.654,-0.213,0.748,24.963,175.049,14.160
0.657,-0.177,0.712,32.959,172.363,23.437
0.642,-0.128,0.667,43.457,171.021,29.907
0.659,-0.059,0.611,54.626,172.363,35.645
0.682,0.000,0.555,64.209,172.424,38.757
0.710,0.020,0.505,69.702,168.701,36.499
0.748,0.038,0.482,63.049,163.147,31.311
0.779,0.021,0.472,52.673,156.128,24.109
0.779,-0.023,0.462,44.250,150.818,16.663
0.813,-0.035,0.471,32.349,148.682,13.916
0.819,-0.069,0.468,27.832,150.024,13.916
0.815,-0.088,0.447,28.503,154.419,15.564
0.820,-0.074,0.409,26.794,160.034,19.958
0.825,-0.051,0.359,28.625,165.955,23.010
0.828,-0.028,0.299,31.128,169.189,24.475
0.850,-0.016,0.240,31.372,168.213,24.048
0.864,-0.016,0.186,26.245,162.781,20.874
0.874,-0.011,0.151,19.104,155.701,15.808
0.891,-0.008,0.130,16.296,147.217,12.756
0.885,-0.020,0.119,21.301,137.878,11.414
0.911,-0.027,0.105,24.048,129.822,11.108
0.915,-0.033,0.097,20.386,124.451,10.132
0.903,-0.036,0.080,15.320,122.375,7.874
0.924,-0.038,0.053,13.062,121.887,5.554
0.929,-0.053,0.030,14.160,119.141,4.150
0.937,-0.070,0.014,15.747,114.319,3.479
0.944,-0.071,0.009,15.076,109.375,3.967
0.959,-0.075,0.006,15.076,104.187,5.554
0.966,-0.071,0.011,13.367,100.220,7.263
0.964,-0.065,0.023,12.695,98.999,8.911
0.950,-0.078,0.014,17.029,100.708,10.254
0.961,-0.069,-0.004,16.663,104.065,12.268
0.961,-0.057,-0.026,13.733,106.262,13.550
0.969,-0.044,-0.052,12.756,106.201,13.977
0.952,-0.030,-0.083,12.390,106.140,14.160
0.961,-0.019,-0.129,12.695,106.384,13.062
0.956,-0.021,-0.167,12.451,104.675,11.230
0.951,-0.024,-0.198,10.803,100.403,9.399
0.954,-0.031,-0.223,9.888,93.872,8.423
0.961,-0.034,-0.231,8.179,85.327,8.240
0.953,-0.040,-0.237,6.592,77.026,7.935
0.962,-0.043,-0.242,5.005,70.190,7.507
0.966,-0.049,-0.241,4.578,63.843,7.385
0.955,-0.055,-0.239,4.395,59.814,7.507
0.971,-0.043,-0.235,3.357,57.129,8.057
0.964,-0.054,-0.233,6.287,54.016,8.850
0.970,-0.040,-0.227,5.615,52.246,10.315
0.959,-0.018,-0.230,3.357,51.514,11.719
0.962,-0.009,-0.251,3.845,51.941,10.986
0.959,-0.006,-0.279,2.747,51.575,9.155
0.953,-0.003,-0.300,0.549,50.598,6.714
0.973,-0.009,-0.316,0.732,46.448,3.967
0.968,-0.034,-0.313,1.770,38.879,2.319
0.970,-0.050,-0.300,0.000,33.020,1.099
0.976,-0.074,-0.288,-0.854,28.259,1.648
0.970,-0.060,-0.278,-2.380,24.536,4.517
0.964,-0.043,-0.285,-1.099,24.414,6.836
0.965,-0.024,-0.308,1.892,25.330,7.874
0.960,-0.008,-0.323,1.831,23.987,7.996
0.959,-0.004,-0.322,1.526,20.325,7.263
0.967,-0.006,-0.305,1.648,15.564,6.042
0.963,-0.017,-0.277,2.319,12.390,5.371
0.950,0.001,-0.260,2.686,13.672,5.920
0.960,0.008,-0.274,5.981,17.700,5.493
0.975,0.011,-0.285,7.690,19.775,4.456
0.952,0.030,-0.282,4.700,20.081,3.723
0.955,0.020,-0.296,6.470,20.813,1.648
0.962,0.009,-0.311,6.714,20.996,-0.183
0.954,0.002,-0.324,2.625,19.714,-0.977
0.951,-0.001,-0.341,0.977,18.188,-1.648
0.951,-0.005,-0.359,2.197,15.625,-2.319
0.959,-0.030,-0.364,3.662,10.620,-3.235
0.970,-0.045,-0.340,0.183,3.906,-3.174
0.968,-0.055,-0.299,-2.136,-1.404,-1.892
0.970,-0.067,-0.271,-0.244,-3.052,-0.610
0.973,-0.053,-0.259,-0.061,-1.160,2.075
0.972,-0.033,-0.267,0.122,2.441,4.761
0.974,-0.010,-0.280,0.244,5.737,5.737
0.970,0.004,-0.296,0.366,7.568,5.127

0.244,0.150,-1.656,46.265,-135.803,-71.838
0.272,0.077,-1.715,67.627,-215.576,-96.985
-0.058,-0.080,-1.507,75.073,-317.566,-127.502
-0.367,-0.174,-1.291,34.058,-427.368,-132.812
-0.357,-0.240,-0.984,-56.702,-518.921,-128.479
-0.444,-0.316,-0.587,-117.188,-609.314,-121.399
-0.500,-0.297,-0.149,-151.733,-698.242,-96.985
-0.516,-0.218,0.351,-183.289,-770.569,-67.505
-0.493,-0.058,0.868,-215.210,-827.271,-39.307
-0.431,0.157,1.448,-235.779,-867.432,-13.489
-0.443,0.302,2.053,-242.920,-889.648,12.085
-0.452,0.501,2.706,-248.291,-868.896,38.269
-0.501,0.712,3.317,-227.600,-777.710,42.664
-0.474,0.663,3.677,-148.804,-620.056,6.653
-0.322,0.383,3.692,-63.660,-409.790,-49.316
-0.203,0.067,3.393,-37.415,-181.519,-94.116
-0.139,-0.124,2.857,-42.236,20.691,-112.427
-0.100,-0.204,2.270,-23.621,166.931,-109.619
0.005,-0.276,1.729,16.663,251.953,-89.905
0.113,-0.282,1.334,48.157,293.762,-61.157
0.169,-0.250,1.010,70.068,300.171,-30.212
0.260,-0.188,0.774,79.468,282.349,-0.061
0.336,-0.049,0.614,70.618,252.808,26.489
0.413,0.043,0.499,70.190,216.553,38.757
0.471,0.081,0.398,71.350,171.143,39.612
0.491,0.078,0.369,60.059,120.056,33.752
0.521,0.071,0.413,35.889,75.012,25.269
0.554,0.040,0.525,13.123,40.039,15.930
0.575,-0.002,0.683,1.770,17.334,7.202
0.598,-0.022,0.835,-1.648,5.676,3.296
0.620,-0.061,0.958,0.488,1.465,1.160
0.615,-0.091,1.064,-1.282,5.798,-0.977
0.604,-0.143,1.140,-5.554,18.677,-1.648
0.583,-0.192,1.176,-8.850,40.161,-1.587
0.557,-0.193,1.175,-11.963,67.688,-0.122
0.538,-0.200,1.133,-5.371,94.238,6.287
0.541,-0.205,1.069,6.958,119.019,14.282
0.550,-0.187,1.008,15.869,139.404,21.240
0.569,-0.154,0.958,24.902,155.029,26.917
0.586,-0.147,0.911,36.255,165.039,31.921
0.605,-0.119,0.862,42.419,171.997,36.621
0.620,-0.063,0.814,42.053,177.917,40.710
0.632,-0.051,0.744,45.776,184.387,42.114
0.643,-0.029,0.661,43.335,192.566,40.955
0.669,-0.020,0.585,38.147,198.181,38.147
0.699,-0.019,0.519,33.875,198.425,35.034
0.722,-0.018,0.470,30.090,192.749,32.227
0.757,-0.005,0.438,26.855,183.289,29.053
0.771,-0.029,0.400,29.419,172.241,26.001
0.801,-0.018,0.375,26.428,161.987,24.231
0.827,-0.035,0.367,23.926,153.259,23.132
0.836,-0.075,0.368,24.780,147.339,20.630
0.836,-0.086,0.369,20.142,146.484,19.043
0.833,-0.095,0.356,20.386,148.376,19.592
0.843,-0.091,0.323,25.208,151.123,22.278
0.857,-0.083,0.285,27.527,152.710,25.208
0.867,-0.065,0.239,25.757,152.832,26.184
0.878,-0.044,0.197,24.292,151.917,25.696
0.890,-0.042,0.163,24.170,149.292,24.658
0.896,-0.040,0.127,23.010,144.775,23.437
0.893,-0.033,0.094,20.386,140.137,22.705
0.904,-0.028,0.066,19.714,133.911,21.606
0.920,-0.030,0.039,20.935,124.939,21.057
0.936,-0.018,0.030,18.616,114.563,21.423
0.935,-0.005,0.036,15.076,104.919,22.034
0.944,-0.001,0.044,14.282,98.633,21.667
0.946,-0.001,0.054,13.611,95.520,20.874
0.957,0.004,0.056,14.221,95.215,20.508
0.950,0.002,0.041,15.198,95.825,20.996
0.938,0.027,0.028,12.878,98.450,21.423
0.941,0.049,0.002,11.719,99.854,21.057
0.953,0.057,-0.033,12.451,98.877,19.348
0.949,0.057,-0.064,8.545,96.436,16.235
0.964,0.044,-0.082,2.869,92.346,12.207
0.973,0.031,-0.089,-0.366,85.693,9.583
0.961,0.027,-0.089,-1.526,80.383,8.911
0.952,0.024,-0.105,-0.549,78.186,8.972
0.953,0.030,-0.123,0.305,77.759,8.789
0.964,0.026,-0.147,0.427,75.684,7.935
0.969,0.020,-0.159,-1.221,71.594,5.920
0.981,0.017,-0.160,-3.601,66.284,4.028
0.973,0.006,-0.161,-2.502,60.974,2.991
0.968,-0.000,-0.158,-1.709,58.411,2.930
0.992,0.003,-0.156,-2.441,56.091,3.845
0.990,-0.014,-0.142,-2.319,53.162,4.333
0.995,-0.018,-0.129,-4.028,53.040,4.333
0.988,-0.018,-0.123,-3.052,55.115,5.310
0.989,-0.009,-0.132,0.366,57.922,7.568
0.979,0.012,-0.156,1.404,60.913,9.460
0.964,0.036,-0.192,0.427,64.331,9.827
0.962,0.041,-0.247,-0.244,67.627,7.629
0.953,0.038,-0.300,-1.160,68.298,4.089
0.953,0.035,-0.339,-2.625,63.416,1.648
0.951,0.026,-0.355,-2.808,53.650,0.000
0.961,0.020,-0.346,-2.747,42.236,-0.977
0.959,-0.003,-0.328,-1.099,32.227,-1.404
0.936,-0.003,-0.309,-2.197,25.879,-1.038
0.945,-0.006,-0.311,-3.052,23.499,-0.793
0.959,-0.025,-0.314,-2.075,20.752,-0.916
0.967,-0.043,-0.307,-4.272,15.564,-0.488
0.977,-0.048,-0.282,-8.240,12.207,0.854
0.973,-0.048,-0.265,-8.423,10.559,4.089
1.001,-0.029,-0.257,-6.409,10.742,7.935
0.973,-0.010,-0.245,-5.615,11.414,10.376
0.978,0.022,-0.249,-4.944,13.672,11.414
0.981,0.043,-0.259,-2.747,15.625,11.230
0.980,0.055,-0.268,-0.488,15.747,8.911
0.970,0.061,-0.274,-0.488,14.587,6.409
0.958,0.060,-0.282,-1.038,13.733,3.174
0.971,0.056,-0.291,-1.831,13.428,0.183
0.968,0.035,-0.294,-1.465,10.986,-1.648
0.962,0.020,-0.290,-2.808,8.362,-2.502
0.962,0.017,-0.287,-5.493,7.263,-2.380
0.958,0.011,-0.290,-4.639,6.470,-1.831
0.951,0.009,-0.299,-2.197,6.348,-1.465
0.953,0.016,-0.309,-0.549,5.981,-1.038
0.957,0.021,-0.311,1.465,3.967,-0.854
0.958,0.015,-0.304,3.418,1.404,-1.038
0.963,-0.001,-0.302,4.089,-0.061,-1.404

0.546,0.327,-1.120,16.541,-69.824,-39.856
0.477,0.309,-1.222,25.818,-110.413,-60.303
0.388,0.258,-1.283,21.179,-164.307,-83.252
0.300,0.181,-1.252,9.460,-237.549,-107.666
0.189,0.064,-1.071,-9.033,-323.242,-128.967
0.103,-0.084,-0.792,-33.081,-407.166,-142.822
0.043,-0.220,-0.496,-62.073,-479.065,-145.264
0.001,-0.337,-0.215,-91.248,-535.095,-137.695
-0.011,-0.445,0.071,-121.033,-577.454,-121.277
0.021,-0.537,0.365,-150.391,-608.704,-99.243
-0.007,-0.528,0.682,-179.687,-631.836,-71.716
0.003,-0.434,1.005,-195.129,-645.752,-42.603
0.017,-0.303,1.338,-187.256,-655.823,-17.883
0.002,-0.096,1.728,-166.687,-658.997,1.709
-0.025,0.034,2.067,-130.554,-653.564,15.564
-0.077,0.165,2.408,-102.905,-624.146,24.963
-0.123,0.279,2.686,-85.815,-560.120,22.888
-0.178,0.293,2.844,-59.631,-460.144,6.104
-0.149,0.239,2.841,-34.485,-331.726,-15.442
-0.103,0.155,2.683,-18.982,-190.674,-32.959
-0.019,0.058,2.371,-7.263,-57.129,-42.664
0.088,-0.045,1.962,3.235,52.734,-46.143
0.117,-0.134,1.581,7.874,130.615,-50.781
0.167,-0.160,1.289,-1.160,180.420,-55.969
0.213,-0.135,1.080,-10.803,205.017,-54.504
0.254,-0.144,0.906,-2.136,206.970,-45.532
0.306,-0.156,0.778,14.404,195.984,-32.288
0.368,-0.142,0.691,27.161,179.871,-16.418
0.424,-0.146,0.651,43.823,158.936,-5.310
0.449,-0.167,0.652,56.152,133.667,2.136
0.471,-0.166,0.686,54.749,109.863,10.681
0.496,-0.137,0.734,43.152,90.271,20.569
0.509,-0.123,0.784,35.522,75.806,26.184
0.530,-0.110,0.845,27.954,67.749,28.687
0.536,-0.113,0.885,20.569,67.322,27.649
0.534,-0.129,0.919,16.663,75.623,22.522
0.560,-0.152,0.951,13.794,88.013,15.869
0.541,-0.195,0.967,12.085,101.929,9.827
0.536,-0.234,0.950,10.254,117.249,6.165
0.543,-0.258,0.912,12.756,131.531,7.507
0.558,-0.260,0.856,21.606,142.456,14.221
0.579,-0.252,0.791,33.081,149.841,23.560
0.598,-0.222,0.728,41.992,152.771,33.264
0.611,-0.151,0.678,46.082,151.306,42.175
0.653,-0.109,0.658,51.758,144.531,49.744
0.676,-0.080,0.651,53.528,135.681,53.406
0.696,-0.056,0.641,47.546,130.066,51.636
0.691,-0.035,0.643,42.114,127.686,45.105
0.711,-0.059,0.623,43.396,129.639,36.011
0.732,-0.083,0.591,39.612,133.301,30.151
0.737,-0.095,0.560,32.166,135.071,27.710
0.756,-0.112,0.524,27.954,133.728,25.696
0.769,-0.111,0.490,25.085,130.920,24.353
0.773,-0.102,0.446,24.963,127.380,24.597
0.788,-0.095,0.397,28.625,122.986,24.536
0.806,-0.089,0.350,29.175,116.638,24.109
0.828,-0.098,0.317,24.658,107.849,22.217
0.840,-0.091,0.314,13.733,97.534,18.921
0.842,-0.095,0.315,7.507,86.182,15.564
0.854,-0.109,0.315,7.080,74.463,14.099
0.868,-0.120,0.319,5.371,64.575,13.611
0.860,-0.113,0.323,1.892,59.387,13.062
0.871,-0.107,0.313,2.441,57.617,12.634
0.865,-0.109,0.307,5.798,55.298,12.390
0.900,-0.116,0.312,7.141,50.415,12.024
0.915,-0.130,0.340,4.822,43.457,11.414
0.896,-0.136,0.374,2.502,39.124,11.047
0.896,-0.129,0.403,3.357,39.856,12.573
0.913,-0.110,0.417,8.240,43.884,15.686
0.914,-0.091,0.410,12.756,49.744,17.822
0.911,-0.075,0.399,15.198,57.129,18.250
0.929,-0.085,0.388,15.808,63.416,17.395
0.921,-0.089,0.386,13.733,68.970,15.991
0.936,-0.091,0.389,11.658,73.608,15.930
0.934,-0.099,0.391,12.695,77.271,16.785
0.929,-0.096,0.381,15.747,82.520,18.005
0.937,-0.085,0.361,18.738,88.013,19.775
0.946,-0.077,0.340,20.386,92.346,20.813
0.947,-0.074,0.314,18.921,98.206,20.752
0.947,-0.069,0.289,15.442,105.042,19.165
0.946,-0.072,0.259,15.686,111.084,17.517
0.944,-0.074,0.219,20.325,115.662,17.456
0.944,-0.060,0.170,24.536,119.202,18.677
0.947,-0.042,0.119,27.161,119.812,19.104
0.938,-0.030,0.064,27.222,118.164,18.372
0.952,-0.021,0.016,24.353,114.807,16.602
0.960,-0.029,-0.020,18.799,107.361,13.794
0.952,-0.037,-0.043,11.230,98.450,10.376
0.954,-0.039,-0.062,5.920,90.210,8.301
0.946,-0.046,-0.083,6.531,82.336,7.507
0.960,-0.052,-0.094,7.996,74.341,6.897
0.987,-0.054,-0.084,7.080,64.392,6.409
0.980,-0.081,-0.068,7.080,54.016,5.371
0.988,-0.105,-0.051,4.456,47.302,4.639
0.990,-0.111,-0.038,-0.122,44.189,5.554
0.980,-0.107,-0.040,0.061,43.701,7.385
0.986,-0.091,-0.052,2.563,43.823,9.949
0.990,-0.076,-0.068,5.310,41.565,12.390
0.984,-0.046,-0.072,4.822,38.452,13.367
0.984,-0.015,-0.074,3.296,35.706,12.756
1.000,-0.011,-0.070,4.456,31.433,10.803
0.998,-0.010,-0.053,2.869,26.672,8.118
0.994,-0.024,-0.039,0.549,25.024,5.310
0.997,-0.043,-0.036,0.061,26.245,3.235
1.000,-0.054,-0.041,-0.732,27.588,3.174
0.994,-0.056,-0.049,-1.465,28.564,4.211
1.000,-0.049,-0.062,-1.221,29.480,5.127
0.997,-0.041,-0.071,-1.648,28.992,5.859
0.996,-0.030,-0.071,-1.038,27.161,6.287
1.000,-0.035,-0.065,0.366,24.841,6.287
1.008,-0.042,-0.054,-0.488,22.766,5.676
1.000,-0.053,-0.046,-2.319,23.315,4.761
0.998,-0.046,-0.054,-3.784,26.306,4.700
1.005,-0.035,-0.070,-2.625,29.541,5.310
0.996,-0.034,-0.084,0.488,31.433,5.310
0.991,-0.028,-0.105,1.953,33.691,4.456
1.000,-0.033,-0.127,2.808,34.668,2.747
0.996,-0.048,-0.142,3.174,33.020,0.854
0.993,-0.051,-0.151,2.380,29.846,0.061

-0.400,0.318,2.542,-187.012,-831.421,-61.340
-0.501,0.335,3.143,-167.542,-758.423,-71.533
-0.474,0.309,3.579,-136.047,-623.230,-89.417
-0.321,0.118,3.751,-86.853,-436.646,-116.150
-0.225,-0.177,3.588,-40.100,-225.403,-135.803
-0.155,-0.400,3.118,-23.926,-27.527,-132.751
-0.092,-0.439,2.511,-22.156,128.845,-112.366
-0.027,-0.403,1.954,-2.441,230.103,-85.693
0.057,-0.336,1.526,32.471,279.541,-54.199
0.196,-0.309,1.120,62.683,288.208,-17.212
0.249,-0.194,0.762,66.895,256.897,21.118
0.300,-0.018,0.582,53.162,212.769,43.457
0.373,0.063,0.519,56.641,170.044,47.180
0.439,0.074,0.532,67.139,128.662,43.152
0.465,0.064,0.613,61.279,93.994,34.790
0.499,0.049,0.717,41.382,73.425,23.987
0.540,0.018,0.802,22.644,68.359,13.245
0.549,-0.026,0.844,10.498,75.073,3.601
0.547,-0.072,0.846,3.662,89.172,-3.052
0.581,-0.076,0.828,0.549,103.882,-7.202
0.595,-0.134,0.799,5.371,114.807,-10.010
0.609,-0.199,0.778,8.118,122.742,-14.709
0.603,-0.246,0.756,3.174,127.869,-16.174
0.604,-0.281,0.720,2.930,130.615,-14.343
0.612,-0.288,0.686,6.470,129.639,-8.972
0.629,-0.292,0.664,13.550,123.840,-2.014
0.658,-0.280,0.667,20.447,113.831,5.249
0.687,-0.270,0.709,24.475,101.563,13.245
0.687,-0.259,0.766,26.123,92.407,20.020
0.685,-0.218,0.808,27.161,89.844,27.954
0.678,-0.161,0.819,31.921,94.299,36.255
0.683,-0.096,0.806,39.185,104.126,42.236
0.695,-0.060,0.769,46.631,116.455,44.495
0.714,-0.041,0.731,45.776,129.333,43.274
0.731,-0.027,0.690,35.767,142.090,38.574
0.741,-0.026,0.643,27.039,152.283,31.555
0.759,-0.029,0.587,22.888,158.508,25.513
0.761,-0.044,0.516,23.376,161.072,20.813
0.767,-0.064,0.440,24.536,161.621,17.029
0.782,-0.076,0.365,21.973,159.302,15.442
0.805,-0.094,0.301,17.334,153.625,13.672
0.821,-0.099,0.260,9.705,143.799,11.597
0.836,-0.104,0.238,4.517,130.066,10.071
0.850,-0.107,0.232,3.540,114.929,9.399
0.865,-0.106,0.230,5.066,101.135,9.521
0.872,-0.111,0.228,8.240,90.576,9.644
0.877,-0.114,0.220,9.888,83.496,9.888
0.894,-0.123,0.205,8.789,78.918,9.521
0.899,-0.129,0.208,5.127,75.867,7.751
0.919,-0.133,0.225,2.686,71.594,6.531
0.938,-0.147,0.254,6.042,65.247,7.263
0.923,-0.150,0.290,11.230,61.035,9.949
0.927,-0.144,0.304,16.418,61.646,13.550
0.929,-0.123,0.299,18.066,66.589,16.418
0.936,-0.103,0.278,17.578,72.754,17.151
0.935,-0.089,0.246,17.639,78.857,16.663
0.952,-0.083,0.219,16.724,82.642,16.052
0.948,-0.087,0.198,13.794,83.496,14.954
0.942,-0.086,0.170,10.620,83.557,13.916
0.939,-0.070,0.147,8.667,83.557,14.221
0.944,-0.055,0.127,10.742,80.566,14.893
0.958,-0.051,0.104,14.221,75.195,14.832
0.959,-0.040,0.092,11.292,69.153,13.672
0.963,-0.036,0.091,7.080,63.721,11.536
0.970,-0.052,0.093,5.310,58.960,8.911
0.974,-0.068,0.100,2.014,55.115,7.507
0.973,-0.091,0.102,-0.488,53.955,7.080
0.977,-0.092,0.101,-3.662,54.871,7.935
0.981,-0.085,0.096,-4.761,55.115,9.705
0.975,-0.074,0.089,-2.502,55.176,11.108
0.983,-0.056,0.085,-0.122,56.030,11.597
0.968,-0.051,0.081,3.235,57.678,11.536
0.981,-0.057,0.069,6.775,59.387,10.376
0.989,-0.058,0.056,4.761,59.998,9.399
0.986,-0.060,0.038,0.977,59.570,8.362
0.978,-0.058,0.011,-1.343,59.631,7.141
0.987,-0.057,-0.015,-0.549,59.753,6.287
0.993,-0.065,-0.029,1.892,57.007,5.554
0.988,-0.071,-0.026,3.906,52.368,5.737
0.996,-0.071,-0.016,4.517,48.157,6.470
0.999,-0.074,-0.005,5.005,44.739,7.080
0.994,-0.068,-0.003,3.723,43.945,7.507
1.000,-0.062,-0.007,2.136,45.410,8.057
0.995,-0.054,-0.011,1.770,47.302,8.667
0.994,-0.046,-0.023,3.723,50.049,8.545
0.990,-0.048,-0.045,5.737,52.551,8.179
0.991,-0.063,-0.070,5.005,53.589,7.019
0.994,-0.064,-0.086,0.122,52.795,6.653
0.991,-0.061,-0.097,-2.869,50.537,7.019
0.983,-0.060,-0.110,-1.831,47.913,7.568
0.992,-0.054,-0.122,-0.366,44.922,7.751
1.006,-0.050,-0.120,0.305,40.161,8.362
0.990,-0.047,-0.104,0.000,35.278,8.728
0.985,-0.038,-0.107,0.122,34.851,8.850
0.990,-0.026,-0.119,1.160,36.987,8.728
0.983,-0.016,-0.133,2.319,38.086,8.301
0.990,-0.011,-0.143,2.747,37.354,7.202
0.993,-0.012,-0.145,2.319,35.339,5.554
0.987,-0.022,-0.143,1.343,33.508,3.723
0.987,-0.036,-0.146,0.488,32.043,2.808
0.986,-0.041,-0.152,-1.587,31.555,2.869
0.988,-0.039,-0.161,-1.770,31.067,2.930
0.980,-0.039,-0.173,-0.183,30.273,3.418
0.980,-0.034,-0.188,0.427,29.114,3.784
0.985,-0.030,-0.204,0.183,27.588,3.296
0.978,-0.035,-0.215,-0.305,25.330,2.197
0.979,-0.037,-0.218,-0.916,22.583,1.404
0.993,-0.045,-0.211,-0.549,18.188,1.465
0.993,-0.047,-0.188,-0.122,12.817,1.648
0.996,-0.047,-0.162,1.465,8.972,2.197
0.996,-0.045,-0.143,3.723,8.301,2.991
0.999,-0.041,-0.141,4.028,11.292,3.601
0.992,-0.034,-0.148,1.892,15.503,3.967
0.990,-0.028,-0.167,0.122,18.982,3.723
0.995,-0.030,-0.190,0.061,21.423,2.502
0.985,-0.033,-0.199,0.000,21.057,1.709
0.983,-0.031,-0.204,0.549,19.165,1.587
0.985,-0.032,-0.213,2.808,17.334,1.221
0.983,-0.029,-0.219,4.333,15.381,0.916

0.144,-0.092,2.372,-154.053,-604.980,-19.470
0.057,0.004,2.688,-153.076,-527.588,-23.865
0.041,0.032,2.804,-121.460,-405.273,-32.166
0.076,-0.004,2.737,-81.116,-261.353,-37.537
0.149,-0.066,2.511,-49.744,-125.061,-38.635
0.216,-0.130,2.168,-26.306,-15.930,-38.086
0.223,-0.202,1.803,-4.944,60.486,-35.400
0.274,-0.244,1.482,7.202,108.215,-28.748
0.318,-0.285,1.215,11.353,133.301,-20.203
0.338,-0.234,1.015,1.831,138.733,-8.667
0.372,-0.154,0.860,-1.526,127.136,6.042
0.405,-0.092,0.746,6.042,108.459,17.822
0.435,-0.043,0.682,10.437,89.783,22.339
0.472,-0.015,0.652,8.423,73.181,20.691
0.498,-0.023,0.657,4.395,59.875,14.832
0.500,-0.053,0.690,0.244,49.561,8.057
0.532,-0.079,0.740,-3.479,43.762,4.211
0.544,-0.098,0.806,-6.042,40.588,2.686
0.550,-0.119,0.878,-4.333,39.551,2.380
0.556,-0.130,0.954,-1.038,40.710,3.296
0.566,-0.129,1.018,2.136,44.861,5.310
0.572,-0.135,1.080,6.836,53.406,6.592
0.567,-0.174,1.106,10.803,68.848,6.714
0.552,-0.181,1.112,8.484,88.379,7.446
0.556,-0.179,1.110,8.911,110.046,9.460
0.530,-0.178,1.055,17.578,132.751,13.611
0.520,-0.139,0.974,24.902,155.457,20.325
0.545,-0.099,0.873,31.921,173.157,25.818
0.577,-0.098,0.779,39.063,183.594,28.076
0.606,-0.091,0.708,38.025,187.134,29.297
0.635,-0.064,0.658,34.180,184.753,29.236
0.673,-0.063,0.616,35.217,177.429,28.564
0.682,-0.067,0.577,38.208,169.800,27.222
0.703,-0.063,0.545,35.950,163.879,26.794
0.732,-0.062,0.518,32.288,158.691,25.391
0.749,-0.078,0.487,30.090,154.053,22.461
0.764,-0.088,0.451,24.658,149.841,19.470
0.784,-0.089,0.421,17.334,144.714,16.418
0.794,-0.101,0.390,14.282,137.939,14.221
0.810,-0.110,0.357,14.099,131.409,13.306
0.811,-0.107,0.327,13.794,125.305,13.245
0.833,-0.107,0.307,15.808,118.591,13.245
0.859,-0.125,0.294,17.517,110.291,12.756
0.858,-0.128,0.300,16.724,103.699,11.902
0.867,-0.136,0.302,18.616,98.755,12.146
0.869,-0.140,0.298,20.935,95.947,13.733
0.889,-0.136,0.287,20.020,93.628,15.686
0.895,-0.121,0.275,16.907,91.980,16.663
0.895,-0.108,0.260,14.771,89.783,16.663
0.896,-0.093,0.239,14.404,86.914,16.846
0.909,-0.067,0.221,14.954,83.923,17.029
0.919,-0.062,0.217,18.372,79.102,16.174
0.927,-0.069,0.217,21.851,73.303,14.709
0.923,-0.078,0.218,20.874,68.359,14.099
0.937,-0.082,0.223,15.930,65.063,13.733
0.944,-0.082,0.231,10.437,62.378,13.123
0.944,-0.075,0.234,7.812,60.425,12.817
0.950,-0.075,0.240,7.996,60.059,12.878
0.951,-0.073,0.238,8.484,61.340,13.245
0.959,-0.066,0.227,7.385,64.453,13.428
0.965,-0.050,0.214,5.371,68.298,13.062
0.959,-0.062,0.204,6.165,70.679,12.390
0.967,-0.067,0.188,5.981,72.693,11.963
0.967,-0.068,0.171,4.089,74.402,11.414
0.958,-0.062,0.150,3.357,76.172,10.986
0.962,-0.061,0.116,5.798,77.271,11.230
0.967,-0.056,0.087,6.042,76.294,10.925
0.968,-0.050,0.069,4.761,72.327,10.254
0.975,-0.053,0.056,5.981,67.322,9.033
0.980,-0.071,0.053,6.714,62.073,7.629
0.991,-0.071,0.063,5.432,58.044,6.653
0.998,-0.086,0.081,5.981,54.382,6.531
0.992,-0.097,0.089,6.592,53.162,7.324
0.996,-0.096,0.084,5.005,55.847,8.362
0.985,-0.089,0.067,3.357,60.913,9.155
0.986,-0.085,0.039,4.700,65.674,10.193
0.981,-0.064,0.004,3.906,67.993,12.024
0.980,-0.041,-0.025,4.272,68.542,12.207
0.979,-0.029,-0.048,6.836,66.162,11.719
0.980,-0.017,-0.067,9.033,61.279,10.986
0.979,-0.019,-0.076,7.874,55.725,8.972
0.978,-0.016,-0.076,4.089,50.903,7.446
0.994,-0.026,-0.072,2.686,47.241,4.700
0.983,-0.053,-0.068,3.723,43.701,2.930
0.983,-0.057,-0.076,2.808,42.175,3.235
0.990,-0.062,-0.083,2.014,41.138,3.967
0.989,-0.071,-0.087,1.709,38.513,5.127
0.995,-0.060,-0.083,-0.916,36.926,5.432
0.998,-0.060,-0.083,-0.122,35.461,5.493
0.996,-0.059,-0.087,2.502,33.936,6.042
0.997,-0.055,-0.101,2.319,32.654,6.470
0.998,-0.053,-0.116,0.122,31.677,6.470
0.992,-0.057,-0.127,-2.136,30.090,6.592
0.983,-0.039,-0.130,-3.418,27.710,7.507
0.993,-0.032,-0.133,-0.427,24.841,7.568
0.982,-0.022,-0.127,2.747,21.606,7.446
0.989,-0.002,-0.121,2.197,19.958,6.958
0.990,-0.003,-0.112,2.686,18.494,5.798
0.996,-0.007,-0.105,3.113,17.456,3.601
1.000,-0.037,-0.105,4.272,17.822,0.916
1.001,-0.052,-0.099,1.221,18.677,-0.305
1.000,-0.061,-0.097,-1.404,19.775,-0.305
1.000,-0.056,-0.099,-0.366,21.301,1.343
0.998,-0.046,-0.113,2.808,23.010,3.601
0.996,-0.045,-0.130,4.028,24.597,4.578
0.996,-0.025,-0.148,1.770,24.902,5.249
0.989,-0.035,-0.168,1.892,23.926,4.456
0.982,-0.025,-0.187,1.038,22.400,3.662
0.982,-0.025,-0.203,0.732,19.531,2.808
0.978,-0.031,-0.214,1.526,15.137,1.831
0.978,-0.025,-0.212,-0.183,10.803,1.404
0.984,-0.031,-0.206,-0.549,5.249,0.977
0.991,-0.026,-0.177,-2.136,0.366,0.732
0.986,-0.025,-0.136,-2.747,-2.075,0.916
0.992,-0.043,-0.106,-1.099,-1.404,0.549
1.002,-0.053,-0.086,-2.808,2.380,0.488
0.999,-0.054,-0.084,-4.028,7.629,1.038
1.004,-0.060,-0.102,-1.343,13.367,1.465
1.009,-0.052,-0.110,0.061,16.602,2.869

0.406,0.197,-1.280,20.508,-172.607,-109.802
0.282,0.074,-1.275,6.470,-239.136,-133.545
0.173,-0.083,-1.156,-13.489,-316.406,-149.231
0.090,-0.283,-0.940,-39.185,-395.447,-155.884
0.012,-0.444,-0.635,-75.989,-469.055,-152.649
-0.046,-0.519,-0.280,-112.854,-533.997,-137.634
-0.073,-0.556,0.124,-133.911,-586.487,-113.281
-0.054,-0.546,0.541,-149.231,-623.535,-81.360
-0.033,-0.462,0.992,-170.227,-645.203,-49.927
-0.014,-0.297,1.449,-188.538,-651.245,-20.874
-0.011,-0.142,1.883,-191.650,-643.494,-1.404
-0.003,0.032,2.313,-188.965,-612.305,8.545
-0.004,0.145,2.658,-178.772,-545.044,12.817
-0.010,0.262,2.886,-158.875,-445.496,14.648
0.011,0.268,2.930,-116.272,-318.298,4.578
0.024,0.183,2.769,-64.575,-178.894,-11.902
0.055,0.071,2.446,-31.006,-47.424,-23.376
0.090,-0.030,2.061,-11.536,58.167,-29.968
0.133,-0.098,1.722,3.174,128.174,-31.677
0.191,-0.144,1.446,18.250,165.649,-28.870
0.239,-0.150,1.221,27.344,180.664,-20.996
0.292,-0.131,1.036,31.921,182.373,-9.583
0.358,-0.132,0.854,37.659,174.011,1.282
0.403,-0.120,0.720,37.292,157.288,10.376
0.420,-0.082,0.645,33.691,136.475,16.174
0.489,-0.106,0.609,35.522,116.455,17.883
0.529,-0.097,0.633,31.067,97.473,19.897
0.555,-0.111,0.680,29.602,80.688,18.982
0.562,-0.134,0.741,31.067,69.397,17.334
0.582,-0.164,0.791,26.367,64.514,16.296
0.609,-0.163,0.855,14.832,66.833,15.442
0.604,-0.175,0.900,5.432,72.693,14.587
0.608,-0.189,0.923,4.822,83.069,12.939
0.612,-0.216,0.918,8.179,94.788,13.428
0.586,-0.223,0.897,13.611,109.131,16.174
0.592,-0.214,0.854,19.714,121.643,21.057
0.602,-0.192,0.812,26.306,128.540,25.696
0.605,-0.170,0.770,31.250,130.310,29.297
0.628,-0.151,0.730,33.997,127.319,32.166
0.649,-0.128,0.707,32.715,122.253,33.691
0.665,-0.109,0.706,29.907,116.394,34.119
0.698,-0.096,0.717,29.968,109.375,34.485
0.703,-0.101,0.728,30.396,105.774,35.156
0.720,-0.084,0.745,26.428,108.582,35.706
0.736,-0.068,0.755,23.132,116.699,35.461
0.712,-0.054,0.728,27.954,129.333,34.241
0.727,-0.045,0.671,34.119,143.494,33.386
0.740,-0.051,0.605,34.973,156.128,32.593
0.752,-0.041,0.533,30.823,163.940,31.128
0.773,-0.046,0.456,27.649,165.894,28.625
0.797,-0.060,0.383,23.865,160.645,25.024
0.821,-0.066,0.332,15.991,150.208,20.935
0.846,-0.071,0.319,11.658,136.353,16.663
0.858,-0.101,0.327,14.099,122.070,14.221
0.850,-0.121,0.331,19.043,113.647,14.709
0.854,-0.120,0.315,21.667,111.450,16.418
0.864,-0.114,0.277,21.240,112.122,17.456
0.870,-0.111,0.237,18.616,112.976,16.724
0.890,-0.114,0.212,14.648,111.206,15.442
0.907,-0.113,0.198,11.658,106.262,14.343
0.903,-0.124,0.182,11.475,99.792,14.526
0.899,-0.113,0.171,11.230,95.215,15.381
0.917,-0.099,0.160,12.451,90.332,16.785
0.938,-0.088,0.159,13.733,83.496,18.188
0.937,-0.082,0.175,12.817,78.064,18.188
0.943,-0.087,0.187,12.024,75.500,16.968
0.950,-0.089,0.188,11.230,74.158,16.846
0.948,-0.078,0.184,9.460,73.669,17.273
0.955,-0.067,0.169,9.888,73.608,17.761
0.954,-0.049,0.152,11.047,73.730,17.761
0.954,-0.039,0.127,12.939,73.120,17.151
0.948,-0.041,0.101,13.550,71.045,15.747
0.971,-0.036,0.093,9.705,68.298,13.855
0.980,-0.045,0.096,7.385,62.866,12.390
0.979,-0.065,0.103,7.324,57.739,11.353
0.980,-0.062,0.119,4.333,55.298,11.597
0.977,-0.060,0.123,4.395,55.237,13.000
0.978,-0.047,0.116,5.920,57.312,13.916
0.970,-0.035,0.099,8.362,60.669,14.160
0.971,-0.025,0.071,9.827,63.904,14.099
0.980,-0.016,0.043,8.423,65.002,13.611
0.978,-0.016,0.019,4.883,63.232,11.963
0.982,-0.021,0.002,1.465,59.631,9.705
0.985,-0.023,-0.001,-0.549,55.176,8.301
0.995,-0.031,0.001,0.854,51.270,6.958
0.986,-0.038,0.013,2.869,47.607,5.798
0.984,-0.045,0.019,4.517,46.814,5.920
0.995,-0.051,0.018,3.418,47.974,6.531
1.001,-0.049,0.016,0.183,49.500,6.775
0.990,-0.058,0.005,-0.305,51.758,6.714
0.988,-0.060,-0.015,1.099,55.054,6.531
0.992,-0.050,-0.041,2.258,57.312,7.263
0.989,-0.038,-0.061,3.967,56.824,8.606
0.989,-0.026,-0.076,5.432,55.603,8.911
0.984,-0.021,-0.098,6.775,54.382,8.057
0.979,-0.015,-0.118,7.324,52.795,6.531
0.979,-0.021,-0.141,8.179,50.171,5.249
0.988,-0.041,-0.159,7.385,46.265,3.479
0.985,-0.055,-0.165,3.357,41.565,2.747
0.985,-0.064,-0.160,0.732,35.950,3.296
0.994,-0.062,-0.140,1.465,30.212,5.554
0.999,-0.056,-0.115,5.188,25.024,8.240
0.994,-0.044,-0.090,8.850,22.461,10.132
0.995,-0.032,-0.080,9.399,23.804,11.658
0.990,-0.017,-0.085,7.019,27.405,12.451
0.990,0.004,-0.099,3.601,32.166,11.963
0.984,0.011,-0.127,4.272,35.767,10.620
0.977,0.008,-0.160,5.005,36.987,8.911
0.983,0.020,-0.186,0.916,36.133,7.019
0.980,0.024,-0.201,-1.526,32.593,5.066
0.981,0.024,-0.209,-1.404,26.611,3.357
0.992,0.017,-0.198,-2.014,19.653,1.343
0.991,-0.007,-0.169,-2.258,12.329,-0.366
0.993,-0.025,-0.133,-3.601,8.545,-0.793
0.989,-0.029,-0.114,-4.150,9.583,-0.183
0.991,-0.032,-0.123,-1.648,13.794,0.977
0.990,-0.026,-0.145,-0.549,18.860,2.014
0.989,-0.020,-0.175,-0.427,22.034,2.319
0.988,-0.011,-0.196,-0.488,22.461,1.953

0.097,-0.084,2.143,-161.316,-569.641,-26.794
0.051,0.010,2.531,-167.358,-534.302,-8.606
0.010,0.131,2.817,-161.865,-461.060,6.653
-0.000,0.169,2.895,-125.305,-343.567,6.042
0.029,0.112,2.776,-78.369,-202.454,-7.141
0.057,0.020,2.497,-45.410,-65.979,-20.081
0.094,-0.052,2.136,-21.729,44.312,-24.475
0.135,-0.090,1.775,2.441,121.216,-20.874
0.190,-0.107,1.456,27.283,164.795,-13.123
0.239,-0.110,1.190,44.495,182.739,-4.517
0.292,-0.109,0.991,50.232,183.960,1.160
0.352,-0.109,0.855,47.974,174.500,5.249
0.404,-0.112,0.757,41.870,157.654,8.118
0.433,-0.123,0.670,36.499,133.240,10.864
0.463,-0.136,0.626,28.198,107.910,12.268
0.491,-0.115,0.636,18.250,86.365,13.855
0.512,-0.115,0.669,19.348,69.092,13.367
0.528,-0.122,0.704,24.536,56.335,11.536
0.547,-0.135,0.734,23.499,48.157,9.827
0.556,-0.134,0.781,14.099,44.006,9.094
0.582,-0.126,0.826,4.456,41.016,10.803
0.575,-0.166,0.850,4.578,41.016,11.169
0.567,-0.186,0.864,0.000,47.302,9.094
0.562,-0.194,0.864,-2.808,55.237,8.911
0.568,-0.199,0.863,0.244,61.035,10.986
0.564,-0.190,0.859,6.287,64.026,14.893
0.563,-0.165,0.849,13.245,65.552,19.714
0.570,-0.128,0.839,18.616,66.040,24.597
0.583,-0.087,0.833,21.973,67.078,28.198
0.603,-0.060,0.830,23.987,68.420,29.602
0.607,-0.043,0.829,22.400,71.960,29.114
0.614,-0.031,0.810,17.700,77.393,26.428
0.627,-0.034,0.777,13.306,84.839,22.278
0.629,-0.046,0.739,9.521,92.957,17.639
0.639,-0.049,0.702,7.874,98.267,14.038
0.656,-0.065,0.667,10.437,99.243,11.719
0.681,-0.066,0.649,10.864,98.206,10.620
0.695,-0.069,0.650,10.132,94.177,10.864
0.698,-0.095,0.644,12.939,88.928,11.414
0.714,-0.104,0.639,11.292,85.571,11.475
0.729,-0.103,0.637,6.653,83.618,11.169
0.735,-0.120,0.634,5.798,83.252,10.132
0.737,-0.119,0.622,4.150,85.449,9.888
0.744,-0.122,0.593,5.920,88.440,10.498
0.754,-0.132,0.561,9.399,90.881,10.742
0.772,-0.134,0.535,10.620,92.285,10.803
0.779,-0.137,0.506,13.245,90.698,10.803
0.786,-0.133,0.489,16.479,86.853,11.780
0.789,-0.135,0.477,19.592,81.848,13.123
0.803,-0.132,0.467,22.278,76.233,14.221
0.824,-0.133,0.465,20.447,71.411,15.076
0.813,-0.130,0.474,15.930,68.481,14.465
0.834,-0.116,0.480,12.085,67.566,14.771
0.837,-0.109,0.484,13.000,66.528,16.846
0.836,-0.090,0.481,14.893,67.200,17.822
0.844,-0.082,0.468,18.066,68.909,18.066
0.845,-0.067,0.452,19.104,70.801,17.334
0.843,-0.059,0.429,19.348,71.350,16.174
0.854,-0.062,0.402,19.653,70.007,14.221
0.861,-0.060,0.380,17.212,67.444,12.085
0.864,-0.066,0.361,14.893,63.782,10.315
0.880,-0.072,0.356,12.085,59.753,9.033
0.901,-0.079,0.367,7.324,56.091,8.240
0.896,-0.075,0.389,2.563,54.016,7.812
0.899,-0.083,0.400,3.723,53.040,8.362
0.895,-0.095,0.398,6.104,54.199,8.911
0.903,-0.093,0.395,4.822,56.824,9.583
0.898,-0.092,0.390,4.639,59.814,10.071
0.913,-0.103,0.376,7.202,62.195,10.315
0.921,-0.102,0.362,6.592,64.209,10.986
0.925,-0.096,0.354,6.042,65.918,11.719
0.926,-0.087,0.342,8.240,67.566,13.000
0.926,-0.081,0.323,12.207,69.336,14.343
0.923,-0.061,0.301,13.428,71.777,15.442
0.922,-0.044,0.273,13.794,73.608,15.686
0.925,-0.035,0.248,14.221,73.608,14.465
0.942,-0.040,0.235,12.451,71.472,12.024
0.954,-0.055,0.239,8.484,67.810,9.338
0.951,-0.083,0.250,5.615,64.270,7.324
0.959,-0.108,0.262,4.333,63.538,6.592
0.965,-0.115,0.282,4.272,64.331,8.362
0.975,-0.127,0.294,7.812,66.162,11.292
0.990,-0.114,0.312,9.338,71.899,14.465
0.964,-0.095,0.305,13.733,82.336,17.944
0.954,-0.068,0.265,21.484,95.886,21.179
0.951,-0.031,0.201,24.536,108.215,23.315
0.948,-0.004,0.126,24.109,115.723,22.949
0.944,0.015,0.053,21.484,117.554,19.775
0.944,0.022,-0.009,18.555,113.770,15.442
0.952,0.015,-0.061,16.296,105.164,11.047
0.956,0.001,-0.086,11.047,93.689,6.226
0.967,-0.015,-0.093,4.700,81.177,2.258
0.973,-0.034,-0.086,2.625,67.139,0.244
0.971,-0.058,-0.069,1.953,53.345,0.305
0.980,-0.070,-0.037,0.122,43.457,1.160
0.988,-0.082,-0.007,-2.747,38.208,2.991
0.996,-0.087,0.010,-4.089,37.964,4.517
1.001,-0.089,0.018,-3.418,40.527,6.042
1.000,-0.083,0.016,-0.671,43.640,7.996
0.986,-0.065,0.005,2.258,47.791,10.437
0.989,-0.040,-0.014,5.981,52.002,12.329
0.986,-0.021,-0.041,8.850,53.894,13.184
0.982,0.002,-0.066,8.606,53.406,11.719
0.990,0.007,-0.090,7.690,50.659,8.728
0.990,-0.003,-0.105,6.897,45.715,4.578
0.983,-0.022,-0.115,4.456,40.955,0.977
0.981,-0.040,-0.117,2.075,37.231,-1.160
0.988,-0.053,-0.122,2.136,34.119,-1.465
0.997,-0.069,-0.122,3.296,30.212,-0.916
1.004,-0.083,-0.114,2.258,25.940,-0.244
0.999,-0.087,-0.094,0.305,23.315,1.404
1.000,-0.085,-0.079,0.793,21.973,4.517
1.002,-0.067,-0.067,1.587,22.217,7.629
0.997,-0.043,-0.066,1.587,24.048,9.888
0.991,-0.019,-0.083,2.808,27.283,10.681
0.980,0.007,-0.111,3.113,29.968,10.620
0.974,0.035,-0.145,3.906,30.518,9.033
0.972,0.046,-0.176,4.761,27.832,6.226
0.975,0.041,-0.191,3.906,22.400,2.319

-0.541,0.044,2.220,-174.072,-831.421,-56.946
-0.566,0.240,2.769,-208.618,-795.898,-36.499
-0.523,0.491,3.234,-209.290,-696.045,-17.883
-0.466,0.510,3.523,-137.146,-547.974,-27.405
-0.376,0.361,3.536,-62.500,-366.821,-48.340
-0.311,0.216,3.276,-40.283,-169.617,-61.951
-0.274,0.077,2.789,-33.386,4.150,-67.261
-0.222,-0.017,2.305,-13.550,126.099,-64.453
-0.129,-0.055,1.914,9.521,196.472,-52.734
-0.042,-0.078,1.587,37.109,231.812,-36.560
0.050,-0.049,1.306,56.030,245.605,-17.639
0.145,-0.012,1.084,67.749,245.117,-1.587
0.213,0.009,0.940,75.562,233.887,8.606
0.281,0.009,0.854,79.468,215.698,13.672
0.338,-0.000,0.794,79.834,196.533,14.648
0.392,-0.022,0.740,76.477,180.725,14.038
0.412,-0.045,0.696,71.167,174.011,11.780
0.423,-0.080,0.649,68.848,175.110,9.338
0.465,-0.137,0.589,70.557,178.345,7.629
0.514,-0.150,0.549,67.749,174.194,7.507
0.545,-0.173,0.540,66.040,159.729,9.399
0.607,-0.202,0.569,63.293,138.428,11.414
0.621,-0.225,0.634,54.810,116.028,13.184
0.640,-0.256,0.701,42.664,97.473,15.381
0.651,-0.233,0.767,27.954,87.402,19.470
0.649,-0.210,0.816,18.738,84.534,24.292
0.645,-0.197,0.832,19.836,87.769,28.015
0.642,-0.169,0.842,20.508,96.130,31.921
0.636,-0.151,0.822,22.339,107.605,34.058
0.643,-0.138,0.777,27.100,119.751,34.607
0.657,-0.125,0.726,31.067,129.211,34.912
0.662,-0.112,0.685,35.034,135.986,34.851
0.676,-0.097,0.646,39.612,138.184,35.461
0.721,-0.080,0.613,42.358,135.864,37.476
0.744,-0.068,0.590,39.063,131.531,39.368
0.744,-0.050,0.572,32.654,128.723,37.842
0.745,-0.044,0.538,27.771,127.197,35.095
0.761,-0.044,0.494,24.475,127.075,32.104
0.783,-0.046,0.462,21.423,126.526,28.442
0.806,-0.057,0.444,20.020,123.779,24.902
0.821,-0.068,0.427,21.729,118.469,22.339
0.845,-0.089,0.412,22.461,111.755,20.447
0.835,-0.097,0.405,17.517,107.056,18.555
0.832,-0.107,0.387,14.221,105.896,16.479
0.850,-0.109,0.360,14.648,106.567,15.686
0.854,-0.097,0.333,15.381,106.873,15.930
0.862,-0.092,0.302,18.555,105.286,16.541
0.864,-0.085,0.268,20.874,102.051,16.418
0.882,-0.081,0.244,20.569,97.412,15.381
0.897,-0.084,0.239,19.104,90.881,13.550
0.906,-0.109,0.237,19.226,83.374,11.780
0.911,-0.127,0.240,14.832,76.904,11.536
0.916,-0.116,0.248,7.629,73.914,12.146
0.913,-0.115,0.244,8.301,72.571,13.245
0.908,-0.096,0.236,11.841,73.242,15.015
0.926,-0.075,0.217,15.137,75.806,16.052
0.939,-0.069,0.200,18.982,75.134,16.113
0.942,-0.053,0.204,19.043,72.266,15.503
0.945,-0.064,0.202,19.653,68.115,14.160
0.951,-0.069,0.206,17.273,65.247,12.451
0.966,-0.075,0.212,12.817,62.012,11.414
0.965,-0.078,0.218,9.766,58.777,11.292
0.961,-0.079,0.212,8.423,58.838,11.841
0.960,-0.062,0.202,7.446,61.768,13.123
0.951,-0.049,0.176,10.864,65.308,14.038
0.959,-0.039,0.144,14.893,67.322,13.916
0.966,-0.032,0.120,14.709,67.444,12.756
0.970,-0.035,0.100,12.268,65.857,10.132
0.974,-0.049,0.089,9.521,61.401,7.751
0.979,-0.065,0.085,6.226,55.847,6.348
0.983,-0.070,0.094,3.296,51.331,5.859
0.981,-0.089,0.102,4.333,47.791,6.958
0.986,-0.088,0.115,4.028,47.058,9.033
0.988,-0.085,0.120,3.601,48.401,11.597
0.983,-0.080,0.113,3.845,52.063,12.756
0.986,-0.064,0.100,2.747,56.824,13.306
0.986,-0.057,0.084,4.089,60.852,13.611
0.991,-0.051,0.063,7.263,63.660,13.367
0.987,-0.042,0.046,8.728,65.674,12.939
0.987,-0.035,0.028,10.193,66.406,12.512
0.994,-0.031,0.009,11.169,65.063,11.902
0.983,-0.024,-0.004,10.193,62.744,11.169
0.984,-0.020,-0.017,8.240,60.791,9.888
0.982,-0.023,-0.029,7.263,59.998,8.179
0.985,-0.024,-0.041,6.165,59.265,6.775
0.984,-0.029,-0.049,6.226,57.800,5.859
0.997,-0.043,-0.052,5.737,55.603,5.066
0.998,-0.061,-0.055,3.784,53.101,4.639
0.990,-0.062,-0.063,1.648,52.856,4.944
0.985,-0.059,-0.080,2.808,53.711,6.653
0.983,-0.043,-0.106,4.944,55.298,8.728
0.980,-0.029,-0.129,7.324,54.871,9.644
0.981,-0.012,-0.139,8.179,52.429,9.460
0.990,-0.014,-0.147,8.179,48.279,8.728
0.984,-0.015,-0.148,5.005,43.335,7.385
0.980,-0.017,-0.154,2.014,39.612,6.042
0.976,-0.025,-0.161,1.526,37.292,5.615
0.990,-0.030,-0.164,0.549,34.302,5.371
0.987,-0.033,-0.157,-0.793,29.846,5.798
0.975,-0.027,-0.149,-0.854,26.917,6.042
0.977,-0.016,-0.148,0.916,26.794,6.592
0.984,-0.010,-0.153,2.441,27.039,6.958
0.989,-0.006,-0.159,0.977,26.428,6.775
0.972,-0.003,-0.165,-1.404,26.001,5.859
0.980,-0.006,-0.173,-1.465,26.123,4.822
0.984,-0.021,-0.183,-0.610,25.085,4.028
0.988,-0.030,-0.184,-2.136,24.048,3.052
0.986,-0.038,-0.182,-2.136,22.461,2.563
0.995,-0.040,-0.178,-0.488,20.325,3.784
0.997,-0.037,-0.173,0.488,18.250,5.493
0.991,-0.028,-0.172,0.183,17.395,6.226
0.989,-0.016,-0.180,0.061,18.250,6.409
0.983,-0.007,-0.197,0.488,19.226,6.104
0.982,-0.007,-0.216,0.488,18.555,4.944
0.983,-0.016,-0.227,-0.916,16.235,3.357
0.997,-0.017,-0.220,-2.930,12.939,2.319
0.990,-0.022,-0.197,-2.197,8.240,2.380
0.990,-0.026,-0.179,-0.244,5.798,3.113
0.981,-0.020,-0.172,-0.122,7.019,3.723

0.417,0.214,-1.290,12.146,-101.379,-66.711
0.330,0.207,-1.301,20.081,-177.002,-86.243
0.210,0.139,-1.193,21.606,-266.602,-109.619
0.103,0.001,-1.000,14.343,-352.417,-135.193
0.014,-0.114,-0.744,-7.751,-426.697,-153.992
-0.041,-0.200,-0.445,-32.410,-492.981,-161.499
-0.072,-0.290,-0.176,-42.725,-552.368,-161.743
-0.028,-0.336,0.149,-57.983,-599.243,-158.386
-0.010,-0.344,0.551,-80.261,-642.151,-148.499
-0.015,-0.346,0.979,-100.159,-684.204,-132.446
-0.029,-0.313,1.437,-133.911,-709.534,-112.976
-0.064,-0.222,1.874,-180.359,-710.876,-86.182
-0.120,-0.080,2.302,-213.867,-675.232,-55.176
-0.080,0.072,2.682,-203.247,-596.313,-37.964
-0.046,0.068,2.941,-146.362,-486.450,-42.725
0.013,-0.016,2.985,-96.497,-343.079,-57.678
0.023,-0.080,2.813,-80.627,-188.232,-66.895
0.042,-0.185,2.456,-59.570,-46.021,-70.496
0.091,-0.259,2.062,-34.668,65.369,-66.345
0.115,-0.291,1.747,-10.864,135.010,-54.993
0.158,-0.307,1.495,16.174,166.443,-38.330
0.216,-0.277,1.258,34.729,174.683,-15.076
0.267,-0.195,1.040,40.039,173.645,7.507
0.330,-0.124,0.873,44.556,170.349,20.325
0.392,-0.095,0.769,49.866,162.292,23.376
0.464,-0.103,0.717,51.208,148.254,21.790
0.500,-0.129,0.703,46.204,131.409,18.677
0.507,-0.136,0.714,35.583,117.188,15.991
0.537,-0.166,0.742,31.067,105.286,14.771
0.552,-0.204,0.783,29.114,97.839,15.076
0.566,-0.226,0.819,23.376,95.276,16.663
0.570,-0.245,0.835,18.066,98.206,17.822
0.567,-0.255,0.836,14.404,106.445,18.555
0.581,-0.276,0.815,15.198,115.234,19.409
0.583,-0.304,0.794,15.442,123.047,20.325
0.593,-0.290,0.779,16.418,128.479,21.851
0.615,-0.312,0.749,24.353,129.333,26.184
0.623,-0.308,0.740,27.466,129.333,29.907
0.639,-0.317,0.720,25.757,127.808,32.837
0.653,-0.286,0.711,24.048,126.648,35.828
0.678,-0.264,0.701,25.269,124.512,40.894
0.679,-0.225,0.695,28.625,122.498,45.898
0.690,-0.182,0.679,30.823,122.131,50.232
0.710,-0.135,0.660,32.104,122.803,52.917
0.744,-0.102,0.644,31.494,124.329,52.734
0.738,-0.076,0.622,30.884,127.502,48.523
0.742,-0.066,0.587,30.762,133.362,42.175
0.746,-0.068,0.544,31.311,138.916,36.621
0.778,-0.082,0.493,29.602,139.404,33.020
0.783,-0.101,0.444,24.353,135.803,28.992
0.810,-0.135,0.408,17.761,129.395,24.658
0.822,-0.142,0.396,8.972,123.352,23.315
0.829,-0.145,0.383,8.179,117.859,23.804
0.834,-0.148,0.367,13.428,113.342,25.269
0.841,-0.135,0.343,16.785,111.328,26.489
0.864,-0.127,0.309,18.982,109.436,26.489
0.868,-0.131,0.277,18.860,106.323,24.902
0.877,-0.142,0.251,15.991,101.868,22.522
0.898,-0.148,0.240,10.681,96.741,20.752
0.902,-0.151,0.235,8.606,91.248,20.386
0.896,-0.145,0.237,10.803,86.914,20.935
0.907,-0.122,0.238,14.038,84.656,23.071
0.899,-0.105,0.224,19.226,82.581,25.085
0.904,-0.077,0.206,19.348,81.909,25.330
0.926,-0.074,0.182,15.747,79.651,23.315
0.944,-0.082,0.173,10.193,75.378,19.653
0.938,-0.092,0.179,4.639,70.557,16.357
0.933,-0.099,0.185,5.249,67.627,15.259
0.931,-0.095,0.190,8.789,66.833,16.602
0.955,-0.093,0.179,12.024,65.613,18.127
0.952,-0.078,0.171,10.254,64.209,18.677
0.957,-0.069,0.162,7.690,62.805,17.456
0.963,-0.075,0.155,7.507,61.035,15.991
0.979,-0.091,0.149,6.226,59.509,14.709
0.967,-0.086,0.161,2.808,59.021,13.916
0.977,-0.089,0.169,5.188,59.082,13.916
0.983,-0.084,0.177,9.216,59.631,15.320
0.986,-0.076,0.179,9.888,61.829,16.602
0.977,-0.070,0.167,9.094,65.918,16.479
0.981,-0.065,0.138,7.690,70.557,15.808
0.980,-0.060,0.107,6.042,74.646,14.648
0.970,-0.055,0.073,5.676,78.064,13.367
0.975,-0.062,0.032,6.836,79.468,12.512
0.968,-0.054,-0.004,4.883,77.454,11.658
0.975,-0.053,-0.033,4.395,72.815,10.437
0.986,-0.070,-0.045,4.639,65.063,9.277
0.983,-0.080,-0.036,2.686,57.434,8.789
0.976,-0.088,-0.024,2.014,52.551,9.216
0.983,-0.095,-0.021,3.357,50.598,10.437
1.000,-0.096,-0.019,3.601,49.622,12.207
0.993,-0.096,-0.019,2.625,49.438,13.489
1.001,-0.093,-0.020,1.648,50.903,14.099
0.995,-0.085,-0.023,1.465,52.612,15.320
0.993,-0.067,-0.031,3.723,55.176,16.296
0.993,-0.045,-0.042,6.348,56.641,17.395
1.001,-0.026,-0.051,8.240,56.213,17.395
0.997,-0.016,-0.053,8.789,55.176,15.747
0.990,-0.016,-0.066,8.362,56.030,13.245
0.981,-0.014,-0.088,7.507,58.105,11.230
0.988,-0.015,-0.117,7.263,58.899,10.132
0.985,-0.028,-0.141,6.836,57.007,8.667
0.989,-0.036,-0.158,3.662,54.077,7.629
0.984,-0.043,-0.167,1.709,49.805,7.385
0.974,-0.049,-0.170,1.953,45.349,8.301
0.974,-0.034,-0.173,1.587,42.297,10.010
0.976,-0.022,-0.183,2.747,39.734,11.475
0.986,-0.014,-0.186,2.319,36.072,11.841
0.989,-0.009,-0.174,0.488,32.104,11.108
0.979,-0.015,-0.167,0.671,29.785,9.949
0.979,-0.005,-0.171,0.122,30.701,9.338
0.976,0.004,-0.185,0.854,31.860,8.850
0.969,0.010,-0.202,2.380,31.799,7.629
0.970,0.013,-0.222,2.319,30.518,5.798
0.973,0.013,-0.236,1.038,27.893,4.150
0.971,0.002,-0.237,0.610,23.560,2.441
0.976,-0.007,-0.231,0.244,19.287,1.099
0.976,-0.023,-0.223,0.305,16.235,0.244
0.982,-0.038,-0.219,-0.122,14.771,-0.122
0.985,-0.041,-0.216,-0.977,14.038,0.244

0.254,-0.099,1.967,-172.485,-482.544,-57.068
0.196,-0.089,2.163,-165.100,-430.847,-51.270
0.155,-0.060,2.266,-138.184,-352.600,-40.222
0.171,-0.048,2.249,-96.252,-250.977,-29.724
0.206,-0.074,2.131,-49.744,-143.311,-22.766
0.238,-0.104,1.955,-15.808,-48.340,-18.433
0.269,-0.125,1.723,3.052,22.522,-15.991
0.275,-0.120,1.505,10.986,71.655,-13.367
0.289,-0.095,1.310,14.709,102.905,-9.766
0.319,-0.075,1.144,20.630,118.896,-6.470
0.367,-0.066,1.009,25.574,121.948,-3.174
0.411,-0.066,0.901,24.719,115.662,-1.770
0.440,-0.076,0.815,17.151,105.286,-2.625
0.469,-0.090,0.756,7.935,93.018,-4.761
0.503,-0.119,0.732,2.686,80.505,-8.179
0.526,-0.156,0.746,1.099,69.031,-11.292
0.536,-0.179,0.789,0.671,60.181,-11.658
0.547,-0.207,0.833,4.028,53.589,-9.094
0.561,-0.227,0.884,5.920,51.208,-4.333
0.572,-0.222,0.935,2.319,53.284,1.526
0.558,-0.209,0.958,0.854,60.303,8.179
0.568,-0.189,0.962,2.869,72.693,13.367
0.574,-0.171,0.957,7.019,88.989,17.212
0.551,-0.160,0.939,14.221,106.506,20.203
0.548,-0.112,0.905,22.522,121.338,22.278
0.581,-0.113,0.852,33.630,128.784,21.667
0.619,-0.118,0.824,36.926,129.883,19.531
0.621,-0.104,0.811,27.588,129.639,18.188
0.625,-0.116,0.782,25.940,130.371,16.785
0.656,-0.118,0.762,26.672,132.629,17.334
0.658,-0.116,0.743,28.076,136.414,19.592
0.666,-0.113,0.708,31.738,140.259,21.667
0.690,-0.102,0.666,32.471,142.395,24.475
0.708,-0.083,0.635,29.358,143.066,25.635
0.725,-0.084,0.602,28.931,142.456,24.536
0.748,-0.103,0.559,28.870,141.479,23.315
0.754,-0.113,0.521,23.743,141.541,22.034
0.764,-0.121,0.483,19.836,140.503,20.386
0.775,-0.128,0.444,20.447,137.451,20.203
0.798,-0.127,0.418,21.240,132.324,21.606
0.833,-0.115,0.410,20.935,125.000,23.315
0.829,-0.115,0.401,19.592,116.638,24.658
0.826,-0.107,0.381,14.771,110.474,24.048
0.842,-0.102,0.365,9.460,106.628,22.339
0.865,-0.113,0.356,7.080,101.807,20.142
0.865,-0.117,0.353,5.737,97.961,18.738
0.877,-0.121,0.345,7.812,94.666,18.250
0.883,-0.112,0.351,9.705,92.102,18.616
0.881,-0.100,0.347,13.672,90.820,18.860
0.894,-0.093,0.325,18.066,90.088,18.250
0.903,-0.086,0.301,18.127,89.661,16.418
0.915,-0.081,0.283,15.320,88.013,13.916
0.932,-0.089,0.275,14.404,83.435,11.902
0.940,-0.108,0.278,13.550,78.552,11.108
0.939,-0.110,0.294,11.414,75.989,11.719
0.935,-0.114,0.295,11.902,76.294,13.916
0.939,-0.114,0.282,13.489,79.956,15.930
0.934,-0.100,0.265,12.756,84.656,17.456
0.946,-0.082,0.236,13.245,87.891,18.494
0.951,-0.065,0.211,12.817,88.745,19.104
0.945,-0.057,0.185,11.475,88.318,18.738
0.951,-0.053,0.156,10.193,88.135,17.151
0.956,-0.062,0.128,8.362,85.876,16.113
0.948,-0.058,0.116,4.517,83.130,15.442
0.947,-0.051,0.098,4.700,81.604,15.076
0.948,-0.050,0.075,8.423,79.712,14.832
0.962,-0.043,0.066,8.911,76.355,14.160
0.982,-0.055,0.063,8.484,71.045,12.634
0.966,-0.065,0.069,6.958,67.078,11.108
0.966,-0.058,0.073,4.578,66.528,10.742
0.974,-0.050,0.068,6.409,67.078,12.390
0.971,-0.041,0.057,8.057,68.359,14.648
0.967,-0.016,0.049,6.714,71.411,14.954
0.966,-0.013,0.029,8.057,74.158,14.038
0.975,-0.024,0.001,7.812,75.195,12.268
0.977,-0.030,-0.017,3.601,74.219,9.827
0.979,-0.040,-0.030,1.770,71.533,7.629
0.990,-0.051,-0.043,4.028,67.078,6.958
0.988,-0.049,-0.045,4.517,61.829,7.690
0.986,-0.041,-0.044,4.333,58.411,8.789
0.996,-0.046,-0.051,4.883,57.007,9.094
0.993,-0.048,-0.060,2.808,56.458,9.399
0.989,-0.047,-0.070,-1.038,57.007,9.460
0.997,-0.045,-0.083,-0.854,56.885,9.216
0.984,-0.042,-0.094,1.221,55.786,9.399
0.995,-0.034,-0.104,2.869,54.749,9.155
0.989,-0.030,-0.102,4.150,52.856,8.545
0.983,-0.033,-0.110,6.897,52.368,7.202
0.983,-0.037,-0.122,8.484,52.979,6.592
0.996,-0.031,-0.133,6.042,52.917,6.836
0.990,-0.040,-0.144,5.188,51.147,6.714
0.983,-0.038,-0.153,3.113,49.866,6.714
0.988,-0.039,-0.170,2.075,48.401,7.202
0.993,-0.038,-0.178,2.197,45.898,7.507
0.985,-0.036,-0.180,1.465,43.091,8.057
0.984,-0.033,-0.180,1.465,40.649,8.423
0.985,-0.027,-0.183,0.183,39.368,9.094
0.982,-0.021,-0.190,-1.221,38.574,10.010
0.987,-0.020,-0.204,-1.465,37.415,10.498
0.975,-0.012,-0.216,-2.686,35.950,10.620
0.977,-0.001,-0.230,-3.235,34.180,10.254
0.977,-0.000,-0.234,-1.953,31.494,9.155
0.986,-0.002,-0.222,-1.648,27.466,7.690
0.988,-0.012,-0.208,-1.038,24.109,6.287
0.986,-0.013,-0.199,-0.610,23.560,5.676
0.983,-0.016,-0.200,-0.305,24.231,5.676
0.986,-0.022,-0.209,0.183,25.940,5.981
0.980,-0.015,-0.223,-1.038,27.527,6.775
0.979,-0.003,-0.236,-1.831,27.771,7.568
0.973,-0.002,-0.246,-0.366,26.672,7.874
0.976,-0.001,-0.251,-0.366,25.574,7.263
0.979,-0.002,-0.254,-1.831,23.804,6.714
0.963,-0.005,-0.256,-2.686,21.973,6.714
0.961,-0.001,-0.259,-3.052,21.240,6.897
0.964,0.002,-0.268,-2.197,20.203,7.690
0.959,0.010,-0.277,-2.441,19.470,8.057
0.951,0.017,-0.286,-2.930,19.226,7.996
0.945,0.025,-0.298,-3.052,18.860,7.324
0.941,0.025,-0.310,-2.014,17.334,6.470

-0.434,0.114,2.634,-303.711,-767.456,-61.340
-0.441,0.266,3.075,-268.372,-670.349,-34.363
-0.297,0.150,3.291,-152.588,-520.203,-35.767
-0.189,-0.018,3.283,-67.444,-335.571,-49.194
-0.188,-0.106,3.084,-43.640,-143.127,-53.467
-0.169,-0.180,2.670,-20.569,29.053,-47.363
-0.089,-0.205,2.171,10.010,160.950,-33.936
-0.027,-0.191,1.712,39.368,247.803,-20.020
0.025,-0.148,1.345,63.965,295.410,-5.371
0.114,-0.096,1.063,84.900,312.622,10.315
0.209,-0.083,0.848,104.309,309.509,23.499
0.303,-0.073,0.685,111.877,296.631,32.654
0.368,-0.074,0.553,107.788,277.039,37.720
0.430,-0.081,0.458,96.741,253.845,37.598
0.475,-0.080,0.395,84.351,227.661,33.203
0.530,-0.107,0.363,73.425,200.134,27.405
0.587,-0.102,0.361,60.669,171.753,23.682
0.638,-0.136,0.362,55.176,139.221,19.653
0.643,-0.166,0.401,45.288,104.797,16.785
0.653,-0.169,0.474,25.208,74.280,16.357
0.666,-0.168,0.562,9.277,49.316,16.968
0.678,-0.173,0.660,1.038,31.006,17.090
0.690,-0.185,0.748,-3.296,20.447,16.663
0.693,-0.184,0.822,-8.240,17.639,16.907
0.683,-0.172,0.889,-10.864,21.851,19.226
0.664,-0.165,0.935,-3.235,32.471,23.010
0.655,-0.150,0.943,7.141,48.340,27.649
0.653,-0.134,0.917,15.686,66.528,31.494
0.669,-0.103,0.877,18.188,84.656,33.020
0.673,-0.073,0.831,21.362,98.816,32.654
0.694,-0.081,0.776,27.344,109.558,30.457
0.702,-0.074,0.725,26.550,117.981,28.931
0.700,-0.059,0.664,23.071,123.718,27.405
0.709,-0.056,0.598,25.085,126.953,25.391
0.733,-0.053,0.549,26.428,126.404,23.376
0.768,-0.074,0.513,25.208,119.629,21.973
0.795,-0.080,0.515,17.883,108.704,20.081
0.803,-0.103,0.531,9.399,96.985,18.921
0.795,-0.125,0.537,5.981,91.125,17.334
0.807,-0.130,0.541,2.502,91.370,16.785
0.814,-0.141,0.532,3.174,94.604,16.724
0.818,-0.148,0.511,6.531,99.060,16.724
0.843,-0.142,0.493,8.362,104.370,17.273
0.842,-0.156,0.464,13.489,108.093,17.944
0.843,-0.152,0.432,17.151,111.084,18.921
0.858,-0.150,0.399,18.311,112.366,20.447
0.874,-0.150,0.376,17.395,111.572,21.362
0.878,-0.159,0.366,14.099,109.985,21.851
0.892,-0.156,0.355,10.986,107.727,22.400
0.888,-0.139,0.337,10.681,105.713,24.353
0.890,-0.116,0.316,14.832,105.042,26.550
0.889,-0.094,0.287,20.691,104.919,28.381
0.896,-0.064,0.260,23.804,105.286,28.931
0.911,-0.052,0.242,22.949,104.187,27.649
0.937,-0.057,0.236,17.883,100.464,24.170
0.951,-0.077,0.237,11.108,94.482,20.508
0.936,-0.092,0.238,6.226,89.600,18.616
0.936,-0.092,0.228,7.263,88.013,19.287
0.943,-0.080,0.214,12.329,88.379,21.790
0.935,-0.057,0.199,16.846,90.942,23.743
0.943,-0.030,0.179,18.799,93.811,24.109
0.943,-0.010,0.156,18.066,95.825,22.644
0.957,-0.009,0.131,17.090,95.642,19.775
0.971,-0.029,0.110,14.221,92.590,17.029
0.971,-0.046,0.108,7.812,89.539,14.343
0.973,-0.052,0.113,2.258,86.975,13.611
0.968,-0.063,0.106,4.211,86.060,14.832
0.956,-0.055,0.086,5.981,87.646,16.907
0.959,-0.035,0.054,6.958,90.393,18.494
0.967,-0.024,0.012,8.728,91.675,19.043
0.964,-0.018,-0.022,8.301,90.393,18.127
0.981,-0.020,-0.041,6.653,87.219,15.869
0.979,-0.027,-0.039,5.249,81.909,13.611
0.981,-0.033,-0.031,6.165,77.209,12.695
0.990,-0.033,-0.031,6.714,72.571,13.245
0.978,-0.021,-0.032,5.920,69.885,14.404
0.985,-0.011,-0.042,5.676,70.007,14.404
0.979,-0.019,-0.066,7.080,70.923,13.367
0.972,-0.022,-0.098,5.310,72.021,12.207
0.978,-0.014,-0.123,1.221,72.693,10.986
0.973,-0.015,-0.144,1.160,70.129,10.437
0.966,-0.006,-0.158,2.319,66.528,10.254
0.973,0.007,-0.177,2.563,62.683,10.376
0.966,0.012,-0.194,2.502,57.861,9.644
0.969,0.012,-0.211,0.305,52.307,7.385
0.967,0.003,-0.213,-1.892,46.387,5.249
0.973,-0.006,-0.209,-2.869,40.588,3.723
0.970,-0.019,-0.204,-2.319,34.912,3.113
0.973,-0.031,-0.205,-1.953,30.701,2.869
0.983,-0.032,-0.201,-2.563,28.442,2.930
0.982,-0.029,-0.194,-2.197,26.062,3.967
0.972,-0.020,-0.193,-0.244,24.902,5.432
0.973,-0.001,-0.199,0.793,25.146,6.531
0.968,0.010,-0.208,0.854,24.719,6.531
0.966,0.019,-0.219,0.488,23.499,5.310
0.960,0.024,-0.228,0.000,22.339,3.784
0.971,0.014,-0.238,1.099,20.264,2.075
0.975,-0.005,-0.238,0.793,16.479,0.488
0.983,-0.018,-0.224,-1.831,12.512,0.000
0.976,-0.022,-0.211,-3.296,10.071,0.793
0.962,-0.017,-0.207,-1.892,9.949,2.197
0.958,-0.001,-0.216,-0.122,12.146,4.211
0.974,0.009,-0.232,1.648,13.062,5.066
0.963,0.013,-0.239,1.160,11.108,4.089
0.948,0.021,-0.242,-0.244,9.155,2.502
0.949,0.029,-0.254,0.305,8.179,1.648
0.943,0.033,-0.270,1.343,6.714,0.671
0.935,0.041,-0.286,0.549,4.395,-0.427
0.926,0.042,-0.303,-0.488,1.587,-1.526
0.919,0.036,-0.321,-1.221,-1.404,-3.174
0.910,0.039,-0.330,-2.197,-5.188,-5.005
0.901,0.034,-0.338,-0.916,-10.010,-6.775
0.890,0.040,-0.344,0.732,-15.259,-8.240
0.878,0.045,-0.362,1.770,-19.958,-9.521
0.836,0.059,-0.410,2.869,-23.193,-11.169
0.812,0.082,-0.505,2.075,-23.499,-13.428
0.790,0.076,-0.636,-1.221,-25.391,-18.799
0.720,0.046,-0.768,-9.705,-34.912,-26.611
0.652,0.005,-0.892,-24.231,-50.537,-33.630

-0.068,0.018,2.172,-121.643,-560.974,-82.458
-0.039,0.026,2.398,-124.573,-491.455,-80.078
-0.035,-0.020,2.509,-98.389,-390.808,-84.717
-0.042,-0.115,2.484,-69.885,-270.630,-88.684
-0.010,-0.163,2.357,-54.260,-146.912,-82.825
0.057,-0.208,2.114,-36.987,-33.569,-70.068
0.095,-0.234,1.807,-12.939,51.147,-55.176
0.089,-0.227,1.524,5.371,103.027,-39.063
0.145,-0.208,1.295,16.724,128.967,-22.278
0.208,-0.180,1.119,24.414,140.808,-6.165
0.272,-0.151,0.963,32.288,139.709,6.165
0.321,-0.124,0.827,36.255,131.775,14.587
0.356,-0.098,0.731,33.508,121.521,18.921
0.384,-0.079,0.674,27.466,109.253,19.043
0.423,-0.083,0.645,23.376,94.727,15.991
0.453,-0.099,0.644,17.517,78.979,10.742
0.469,-0.120,0.668,8.789,62.927,5.005
0.476,-0.138,0.707,1.526,48.340,0.549
0.485,-0.156,0.752,-1.221,36.438,-0.916
0.491,-0.169,0.809,-2.319,27.161,0.427
0.488,-0.168,0.858,-3.296,21.362,4.395
0.479,-0.158,0.894,-3.174,20.630,8.789
0.478,-0.158,0.917,-1.282,23.437,12.512
0.475,-0.148,0.943,-0.854,29.358,15.442
0.471,-0.143,0.961,0.305,36.255,18.127
0.469,-0.136,0.971,3.723,43.091,20.447
0.467,-0.116,0.981,6.592,50.537,23.315
0.459,-0.087,0.998,8.728,58.167,25.940
0.475,-0.062,1.009,11.353,63.354,29.236
0.484,-0.039,1.008,12.756,68.542,30.396
0.493,-0.018,0.999,10.376,76.050,27.954
0.500,-0.010,0.977,7.263,85.571,23.682
0.506,-0.009,0.943,6.592,95.093,20.203
0.531,-0.009,0.910,9.338,102.478,17.822
0.564,-0.016,0.902,15.320,107.788,16.418
0.577,-0.034,0.903,23.499,113.342,15.076
0.588,-0.066,0.888,29.907,121.094,13.245
0.584,-0.082,0.860,28.931,132.263,11.230
0.600,-0.099,0.814,26.550,144.104,10.193
0.617,-0.113,0.753,25.269,154.419,9.583
0.640,-0.119,0.688,24.536,161.377,9.766
0.660,-0.131,0.623,25.818,164.062,10.498
0.674,-0.143,0.553,28.748,162.659,11.475
0.706,-0.139,0.501,29.114,158.020,13.000
0.727,-0.127,0.469,29.419,149.963,14.404
0.746,-0.134,0.440,32.532,138.245,15.564
0.762,-0.136,0.433,32.349,124.634,15.747
0.791,-0.130,0.435,25.757,111.511,15.137
0.810,-0.137,0.448,20.020,99.304,13.855
0.817,-0.158,0.462,15.198,89.966,12.634
0.814,-0.161,0.473,9.888,86.853,12.390
0.819,-0.152,0.475,9.460,88.318,13.855
0.826,-0.144,0.470,15.137,89.417,16.968
0.831,-0.127,0.467,21.057,90.576,20.508
0.855,-0.109,0.464,24.231,90.698,23.071
0.860,-0.105,0.464,23.804,89.966,23.071
0.867,-0.090,0.466,18.921,90.637,22.034
0.876,-0.089,0.469,16.907,93.079,20.813
0.891,-0.093,0.477,18.616,97.412,19.958
0.875,-0.091,0.466,21.118,103.455,20.142
0.864,-0.078,0.424,25.391,112.366,20.996
0.879,-0.069,0.367,28.870,120.911,21.790
0.884,-0.063,0.312,29.358,126.099,21.423
0.881,-0.052,0.263,27.466,127.808,20.691
0.899,-0.050,0.217,26.123,124.207,20.142
0.925,-0.052,0.191,22.156,115.662,18.555
0.932,-0.048,0.190,13.184,105.957,15.930
0.940,-0.064,0.189,9.766,95.459,13.367
0.944,-0.080,0.192,7.874,87.891,12.268
0.946,-0.079,0.197,5.066,85.510,12.085
0.956,-0.087,0.192,6.592,85.388,12.573
0.950,-0.092,0.180,9.705,86.121,13.611
0.951,-0.078,0.171,9.705,88.379,14.648
0.948,-0.079,0.149,10.681,90.820,15.076
0.953,-0.066,0.127,9.949,93.445,15.015
0.953,-0.054,0.101,9.949,95.276,14.709
0.946,-0.053,0.072,12.634,96.436,13.611
0.973,-0.059,0.040,13.245,95.581,12.756
0.981,-0.061,0.016,10.376,90.881,11.963
0.983,-0.065,0.001,7.874,84.290,10.559
0.986,-0.076,-0.012,6.836,76.660,9.766
0.985,-0.071,-0.012,4.578,70.068,9.216
0.980,-0.066,-0.008,4.517,65.125,8.911
0.995,-0.067,-0.006,7.263,61.646,8.728
0.990,-0.072,-0.001,8.423,59.631,8.667
0.987,-0.077,-0.009,7.141,59.204,8.606
0.995,-0.077,-0.027,4.883,58.899,9.094
1.000,-0.068,-0.041,2.563,57.495,9.827
0.990,-0.063,-0.049,2.747,55.298,10.315
0.986,-0.052,-0.054,4.211,53.772,10.742
0.991,-0.041,-0.065,6.592,51.880,11.414
0.988,-0.032,-0.072,7.080,49.500,11.047
0.989,-0.030,-0.079,5.676,47.668,9.827
0.986,-0.030,-0.086,4.028,46.753,8.240
0.992,-0.031,-0.096,3.296,45.349,6.653
1.009,-0.043,-0.099,2.991,42.053,5.798
0.998,-0.046,-0.085,1.038,38.208,5.554
0.982,-0.049,-0.084,0.671,37.659,5.981
0.981,-0.043,-0.097,1.465,40.344,6.836
0.981,-0.039,-0.120,2.686,42.542,7.507
0.987,-0.039,-0.142,2.319,43.274,7.385
0.989,-0.037,-0.161,0.427,42.175,6.653
0.992,-0.042,-0.175,0.061,38.940,5.981
0.992,-0.037,-0.176,-1.160,34.180,5.737
0.997,-0.037,-0.170,-1.709,28.625,5.798
0.992,-0.040,-0.158,-1.038,24.658,5.371
0.987,-0.037,-0.150,-0.854,23.621,5.371
0.996,-0.032,-0.154,-0.305,24.048,5.371
1.000,-0.033,-0.152,0.427,23.743,5.188
0.989,-0.035,-0.151,1.099,23.315,4.517
0.987,-0.037,-0.150,1.709,24.536,3.967
0.989,-0.032,-0.154,1.892,26.123,4.272
0.992,-0.029,-0.162,3.235,26.794,4.639
0.986,-0.022,-0.173,3.845,27.222,4.883
0.990,-0.012,-0.188,3.540,26.978,4.822
0.988,-0.013,-0.201,3.357,26.123,3.967
0.984,-0.024,-0.213,2.258,23.926,2.686
0.980,-0.034,-0.223,0.061,21.179,1.770
0.974,-0.046,-0.231,-1.709,18.799,1.709

-0.124,-0.103,2.191,-196.289,-635.559,-46.997
-0.146,-0.032,2.517,-165.283,-581.726,-31.189
-0.151,0.034,2.748,-130.371,-484.009,-20.996
-0.114,0.063,2.810,-87.952,-351.746,-16.663
-0.066,0.034,2.710,-45.959,-201.172,-14.832
-0.022,-0.006,2.455,-17.273,-54.688,-12.024
0.020,-0.036,2.082,1.099,64.819,-7.996
0.064,-0.061,1.714,16.296,148.804,-3.784
0.110,-0.067,1.411,24.536,201.477,-0.366
0.178,-0.063,1.146,29.358,229.675,4.272
0.252,-0.064,0.930,38.696,242.187,8.301
0.300,-0.093,0.768,53.650,239.929,10.193
0.368,-0.112,0.653,62.073,226.379,13.611
0.421,-0.125,0.562,63.049,206.482,17.761
0.466,-0.135,0.511,58.533,183.777,19.592
0.507,-0.146,0.494,50.598,158.813,19.470
0.543,-0.151,0.500,39.795,133.423,19.653
0.573,-0.150,0.539,28.137,109.131,19.531
0.595,-0.141,0.623,18.494,85.449,19.958
0.613,-0.150,0.720,12.756,63.904,22.339
0.622,-0.146,0.812,7.324,50.049,24.658
0.615,-0.129,0.879,0.488,48.340,24.780
0.596,-0.126,0.904,-0.061,57.251,22.461
0.587,-0.134,0.897,3.418,71.411,20.630
0.598,-0.138,0.881,7.202,85.876,20.203
0.627,-0.132,0.886,9.460,97.290,21.179
0.636,-0.139,0.884,13.794,104.858,22.644
0.629,-0.122,0.876,17.334,113.098,24.597
0.631,-0.110,0.848,22.705,122.498,28.076
0.639,-0.104,0.801,29.907,132.202,31.738
0.647,-0.095,0.745,33.752,142.090,34.973
0.666,-0.071,0.683,34.485,148.743,37.598
0.680,-0.051,0.612,35.767,151.123,38.208
0.700,-0.041,0.536,35.828,149.414,36.743
0.727,-0.017,0.490,32.776,143.921,33.386
0.779,-0.020,0.468,29.602,133.911,26.855
0.808,-0.070,0.448,25.696,121.033,19.348
0.795,-0.094,0.447,12.207,111.633,12.268
0.792,-0.104,0.449,0.427,105.896,8.301
0.811,-0.136,0.437,3.296,100.708,7.690
0.838,-0.144,0.439,6.775,95.947,9.705
0.843,-0.145,0.452,9.888,92.224,12.573
0.853,-0.147,0.466,14.282,91.431,15.259
0.850,-0.146,0.461,18.250,94.116,17.212
0.855,-0.136,0.429,19.836,98.816,18.738
0.854,-0.118,0.384,17.700,104.065,18.982
0.860,-0.107,0.330,17.151,108.704,17.639
0.862,-0.104,0.277,18.555,110.474,15.991
0.872,-0.106,0.235,19.104,108.154,14.832
0.897,-0.108,0.203,18.066,100.037,14.160
0.906,-0.105,0.200,13.428,88.074,14.038
0.922,-0.095,0.225,10.620,74.341,14.038
0.924,-0.097,0.253,12.817,61.218,15.320
0.922,-0.094,0.274,14.954,53.589,16.846
0.923,-0.069,0.293,11.169,52.551,17.639
0.944,-0.067,0.303,10.254,53.955,16.907
0.951,-0.066,0.318,8.728,56.030,16.235
0.936,-0.078,0.315,6.531,59.509,15.076
0.930,-0.077,0.298,4.456,65.369,14.343
0.952,-0.068,0.282,4.028,70.679,14.954
0.949,-0.082,0.260,8.667,72.144,15.808
0.948,-0.067,0.242,8.972,74.036,16.296
0.956,-0.051,0.224,8.911,74.829,16.663
0.962,-0.045,0.211,11.047,73.669,16.541
0.967,-0.035,0.204,10.559,72.510,15.381
0.954,-0.028,0.191,9.460,72.998,13.550
0.957,-0.034,0.166,10.376,74.585,11.597
0.979,-0.047,0.140,10.071,75.073,9.827
0.978,-0.068,0.120,8.118,73.975,8.057
0.966,-0.076,0.112,4.639,73.303,7.080
0.968,-0.077,0.101,3.540,72.388,8.057
0.984,-0.081,0.094,5.859,70.068,10.071
0.982,-0.073,0.094,6.226,68.176,11.597
0.985,-0.071,0.089,6.409,66.833,12.512
0.983,-0.072,0.080,6.836,66.101,12.939
0.990,-0.069,0.069,5.737,67.017,12.939
0.994,-0.067,0.061,4.822,68.726,12.817
0.990,-0.063,0.054,5.859,69.580,13.000
0.988,-0.066,0.038,8.118,69.946,13.672
0.984,-0.053,0.023,7.812,72.449,14.771
0.982,-0.037,-0.002,7.996,74.768,15.503
0.979,-0.024,-0.031,10.010,76.233,15.442
0.982,-0.016,-0.061,10.071,75.562,14.709
0.996,-0.012,-0.074,7.263,72.632,12.878
0.978,-0.023,-0.077,4.761,68.848,10.315
0.980,-0.029,-0.082,3.540,67.017,8.606
0.971,-0.027,-0.084,2.686,67.078,8.545
0.975,-0.026,-0.102,4.333,67.200,9.277
0.971,-0.019,-0.124,3.601,66.223,10.071
0.970,-0.002,-0.144,0.977,64.819,10.437
0.976,0.005,-0.166,-0.549,62.317,10.132
0.974,0.005,-0.179,-0.732,58.350,8.484
0.975,0.005,-0.185,-1.770,54.443,6.775
0.977,0.000,-0.192,-0.854,50.476,4.822
0.979,-0.009,-0.202,1.831,46.143,3.296
0.984,-0.015,-0.209,2.747,41.260,2.563
0.998,-0.027,-0.209,1.587,35.278,2.380
0.986,-0.039,-0.197,-0.244,29.297,2.075
0.981,-0.042,-0.188,-1.709,25.513,2.808
0.990,-0.043,-0.184,-1.343,23.804,4.089
0.989,-0.036,-0.182,-1.770,23.132,5.310
0.989,-0.033,-0.188,-0.793,23.010,5.798
0.988,-0.033,-0.200,0.366,23.193,5.859
0.989,-0.027,-0.212,0.305,23.010,5.554
0.988,-0.017,-0.221,0.061,21.301,5.798
0.989,-0.011,-0.227,1.587,18.555,5.554
0.986,-0.009,-0.219,1.953,14.893,4.944
0.984,-0.016,-0.206,1.526,11.414,4.211
0.990,-0.020,-0.192,0.549,9.644,3.479
0.986,-0.016,-0.179,0.671,9.033,3.784
0.982,-0.011,-0.182,3.235,9.766,4.395
0.986,-0.001,-0.186,3.479,11.475,4.761
0.990,0.005,-0.190,1.953,12.512,4.272
0.989,0.006,-0.193,1.099,12.451,3.174
0.985,0.004,-0.198,1.770,12.329,2.380
0.986,-0.000,-0.211,3.113,12.695,1.648
0.986,-0.005,-0.220,2.502,12.207,1.099
0.987,-0.012,-0.226,1.221,10.254,0.671
0.982,-0.020,-0.229,0.854,7.568,0.488

-0.356,0.199,2.274,-194.641,-786.377,-75.623
-0.527,0.264,2.801,-219.604,-745.789,-71.899
-0.507,0.286,3.233,-202.209,-663.513,-81.421
-0.517,0.130,3.521,-129.578,-523.437,-115.234
-0.371,-0.142,3.495,-66.956,-337.524,-147.156
-0.293,-0.238,3.236,-67.200,-141.418,-150.024
-0.216,-0.328,2.769,-54.932,30.701,-136.230
-0.173,-0.352,2.260,-17.700,157.532,-111.206
-0.085,-0.343,1.809,27.710,234.314,-74.402
0.002,-0.286,1.454,67.383,273.987,-35.339
0.090,-0.224,1.172,91.187,287.964,-1.038
0.181,-0.109,0.977,100.037,283.264,24.109
0.286,-0.072,0.833,108.643,264.404,33.325
0.329,-0.081,0.750,106.201,239.380,33.447
0.398,-0.071,0.688,83.618,219.055,31.921
0.445,-0.071,0.634,61.157,202.698,26.855
0.474,-0.077,0.581,49.011,188.965,17.456
0.498,-0.131,0.521,44.556,178.894,8.362
0.523,-0.191,0.477,36.194,173.889,0.244
0.560,-0.244,0.439,25.208,169.922,-5.127
0.594,-0.287,0.408,19.226,159.241,-7.202
0.628,-0.319,0.412,19.104,137.817,-5.554
0.677,-0.339,0.458,20.630,109.985,-0.366
0.684,-0.339,0.548,22.278,81.360,8.606
0.678,-0.326,0.638,26.184,59.143,19.897
0.690,-0.288,0.708,26.550,49.133,30.579
0.680,-0.222,0.769,22.461,47.791,37.720
0.678,-0.179,0.803,22.644,50.720,41.870
0.677,-0.127,0.819,22.217,58.472,44.067
0.675,-0.095,0.815,21.484,70.068,43.335
0.673,-0.088,0.787,23.193,83.923,39.978
0.694,-0.083,0.743,24.414,98.328,35.950
0.715,-0.094,0.694,24.963,109.619,31.616
0.719,-0.113,0.660,24.597,116.638,27.222
0.735,-0.138,0.634,24.170,118.774,23.865
0.768,-0.146,0.618,21.240,116.150,24.414
0.760,-0.147,0.601,19.653,112.671,26.794
0.766,-0.127,0.579,18.982,110.657,29.175
0.793,-0.110,0.557,19.958,108.093,31.006
0.810,-0.106,0.534,20.508,105.042,31.494
0.807,-0.093,0.520,17.029,105.347,29.785
0.813,-0.092,0.511,15.808,109.131,26.672
0.818,-0.117,0.490,21.118,113.281,23.437
0.827,-0.138,0.446,22.644,117.615,20.874
0.834,-0.139,0.403,19.226,121.460,18.616
0.837,-0.148,0.359,19.165,122.986,17.456
0.850,-0.159,0.317,23.193,121.582,17.090
0.886,-0.171,0.285,23.926,116.821,18.066
0.897,-0.176,0.272,20.203,109.802,19.470
0.889,-0.173,0.260,14.954,103.394,20.630
0.886,-0.149,0.247,12.451,99.060,22.217
0.888,-0.127,0.226,15.320,96.924,23.560
0.899,-0.113,0.201,20.447,95.215,23.987
0.910,-0.111,0.175,21.729,91.248,23.315
0.928,-0.104,0.169,17.944,85.449,21.545
0.939,-0.118,0.172,13.733,78.125,19.958
0.934,-0.119,0.189,10.620,72.083,19.348
0.941,-0.114,0.198,10.376,68.054,20.020
0.948,-0.109,0.201,12.634,65.369,21.301
0.944,-0.091,0.200,11.658,65.002,21.973
0.956,-0.081,0.195,12.390,65.918,21.484
0.961,-0.082,0.190,13.428,66.101,20.630
0.969,-0.072,0.191,12.085,67.200,20.264
0.969,-0.080,0.186,12.024,69.092,20.142
0.958,-0.083,0.164,10.925,72.144,20.508
0.958,-0.072,0.139,7.690,76.477,20.691
0.962,-0.062,0.112,7.568,79.468,20.142
0.958,-0.053,0.090,9.827,80.261,19.653
0.977,-0.046,0.073,12.512,78.308,19.836
0.979,-0.039,0.072,12.573,73.608,19.653
0.976,-0.046,0.070,11.902,69.702,18.127
0.977,-0.052,0.063,9.338,68.237,16.663
0.975,-0.051,0.050,5.981,67.932,16.479
0.968,-0.041,0.028,5.066,69.214,16.357
0.959,-0.031,-0.002,6.104,71.045,16.296
0.978,-0.026,-0.029,6.348,71.106,16.113
0.975,-0.013,-0.042,4.700,68.298,14.771
0.968,-0.016,-0.047,6.653,64.636,12.573
0.972,-0.022,-0.053,10.254,61.401,10.559
0.978,-0.031,-0.066,11.658,58.594,9.888
0.978,-0.027,-0.076,9.460,56.580,8.972
0.987,-0.038,-0.087,7.263,53.772,7.812
0.987,-0.041,-0.090,3.967,51.025,6.958
0.978,-0.046,-0.094,2.808,49.133,6.592
0.972,-0.047,-0.107,4.089,48.218,6.531
0.984,-0.041,-0.118,3.906,47.546,7.263
0.988,-0.041,-0.130,2.319,44.983,7.874
0.982,-0.039,-0.134,0.549,41.809,7.629
0.993,-0.047,-0.136,0.305,38.757,6.958
0.997,-0.057,-0.131,1.099,34.180,6.836
0.997,-0.056,-0.120,0.305,30.579,7.263
0.996,-0.048,-0.107,0.366,29.297,7.996
0.997,-0.036,-0.104,2.625,29.602,8.850
0.997,-0.028,-0.114,4.761,30.884,9.277
0.997,-0.014,-0.124,3.418,32.410,8.606
0.993,-0.011,-0.131,2.563,32.654,7.568
0.987,-0.013,-0.143,3.113,32.166,6.531
0.988,-0.013,-0.151,2.075,31.372,6.042
0.989,-0.010,-0.151,1.038,29.968,5.859
0.980,-0.012,-0.155,2.502,28.320,5.493
0.978,-0.017,-0.165,3.662,27.466,5.127
0.986,-0.020,-0.175,2.014,27.344,4.395
0.979,-0.029,-0.187,0.000,26.611,4.272
0.974,-0.020,-0.193,-1.709,26.306,3.967
0.980,-0.011,-0.206,-0.488,25.208,4.333
0.980,-0.008,-0.215,1.709,22.156,4.761
0.977,-0.007,-0.218,1.526,18.799,4.272
0.975,-0.008,-0.221,0.610,15.808,2.991
0.979,-0.011,-0.219,-0.183,12.634,2.075
0.986,-0.024,-0.210,-0.122,8.667,1.831
0.982,-0.035,-0.195,-0.977,5.981,1.587
0.983,-0.040,-0.186,-1.587,5.798,1.587
0.986,-0.030,-0.183,-1.038,7.141,2.563
0.993,-0.020,-0.187,0.977,7.385,3.418
0.991,-0.014,-0.186,1.343,6.836,3.479
0.998,-0.014,-0.182,-0.427,7.019,2.625
1.001,-0.027,-0.175,-1.587,6.409,1.648
0.995,-0.036,-0.165,-1.831,5.432,1.343
0.994,-0.038,-0.159,-1.526,6.409,2.136

-0.428,0.095,2.700,-243.713,-794.922,-65.613
-0.380,0.230,3.197,-236.328,-699.646,-52.734
-0.323,0.224,3.485,-171.448,-551.331,-58.228
-0.240,0.017,3.459,-83.740,-359.863,-79.346
-0.139,-0.128,3.164,-44.800,-149.109,-88.196
-0.099,-0.207,2.673,-34.607,37.598,-81.238
-0.068,-0.258,2.129,-9.583,173.706,-64.575
0.002,-0.246,1.659,23.376,255.981,-40.955
0.081,-0.216,1.300,58.838,296.204,-15.686
0.159,-0.197,1.028,88.562,305.908,7.080
0.216,-0.173,0.830,106.506,298.889,26.245
0.302,-0.150,0.683,113.037,282.410,40.283
0.376,-0.129,0.586,109.924,260.132,48.279
0.429,-0.120,0.518,101.074,234.924,51.514
0.500,-0.126,0.477,87.952,208.008,52.124
0.569,-0.123,0.483,68.420,181.702,49.133
0.588,-0.117,0.528,46.448,158.020,42.725
0.587,-0.130,0.574,32.898,139.343,35.889
0.613,-0.164,0.591,27.771,126.709,31.311
0.635,-0.175,0.604,21.729,120.911,28.809
0.655,-0.189,0.610,18.005,118.042,27.649
0.653,-0.214,0.615,19.592,116.150,27.405
0.685,-0.229,0.615,21.118,113.220,28.625
0.698,-0.228,0.618,20.264,109.131,30.640
0.693,-0.227,0.607,23.743,104.797,32.837
0.692,-0.222,0.588,28.320,102.661,36.499
0.710,-0.207,0.566,30.518,102.051,40.955
0.731,-0.162,0.569,30.518,101.379,44.128
0.748,-0.129,0.570,33.691,97.168,46.265
0.748,-0.094,0.571,37.415,91.492,47.241
0.769,-0.084,0.558,37.354,88.257,45.715
0.779,-0.075,0.553,29.785,88.806,41.504
0.788,-0.064,0.553,19.531,88.562,37.537
0.791,-0.072,0.542,16.235,88.867,33.081
0.812,-0.067,0.537,14.221,92.163,29.114
0.824,-0.082,0.524,15.198,93.079,25.940
0.823,-0.098,0.501,14.954,92.773,23.376
0.821,-0.084,0.478,10.803,92.468,22.644
0.833,-0.078,0.445,13.611,90.942,21.790
0.849,-0.099,0.410,18.921,87.830,20.630
0.855,-0.106,0.387,15.198,85.022,19.287
0.867,-0.115,0.371,7.629,83.496,16.846
0.872,-0.134,0.353,5.615,83.374,13.977
0.876,-0.147,0.340,6.042,84.290,12.756
0.871,-0.154,0.325,9.399,85.632,13.489
0.884,-0.141,0.302,13.306,85.754,15.747
0.897,-0.132,0.278,17.029,83.740,17.944
0.901,-0.115,0.260,18.311,78.918,18.677
0.908,-0.100,0.247,16.602,72.754,18.250
0.904,-0.081,0.243,14.282,66.650,16.907
0.917,-0.074,0.241,14.526,60.913,15.076
0.921,-0.083,0.239,14.465,55.542,13.000
0.918,-0.080,0.239,10.559,52.856,10.925
0.931,-0.085,0.233,8.179,51.086,9.277
0.928,-0.084,0.230,7.507,50.171,8.179
0.937,-0.078,0.228,7.324,49.316,7.812
0.948,-0.087,0.231,8.362,46.692,7.812
0.952,-0.093,0.245,5.859,43.823,7.935
0.952,-0.093,0.251,1.038,42.603,8.728
0.942,-0.102,0.253,-0.305,43.762,8.789
0.948,-0.101,0.251,-0.244,45.715,8.850
0.956,-0.104,0.241,2.197,46.936,9.888
0.964,-0.098,0.239,3.357,47.974,10.803
0.972,-0.093,0.242,3.662,48.645,11.047
0.975,-0.100,0.242,7.324,48.645,10.925
0.976,-0.094,0.245,7.690,49.805,11.169
0.984,-0.091,0.245,7.690,51.514,11.475
0.974,-0.091,0.239,7.874,53.772,11.536
0.974,-0.076,0.227,6.531,58.350,11.780
0.966,-0.062,0.198,8.423,63.660,12.207
0.962,-0.051,0.156,11.902,68.237,11.719
0.969,-0.035,0.122,12.817,70.557,10.315
0.969,-0.036,0.096,14.343,68.542,8.301
0.969,-0.045,0.075,14.771,64.331,5.798
0.967,-0.060,0.063,13.000,60.242,3.357
0.988,-0.082,0.062,9.888,56.396,1.526
0.987,-0.101,0.073,7.263,52.856,0.549
0.983,-0.111,0.078,6.531,50.781,1.404
0.986,-0.110,0.068,7.141,51.025,3.296
0.992,-0.098,0.056,7.141,51.758,5.493
0.994,-0.092,0.042,7.385,52.124,6.653
0.999,-0.086,0.036,7.080,52.185,6.653
0.990,-0.082,0.032,6.348,51.941,6.348
0.988,-0.080,0.021,7.019,52.063,5.981
0.987,-0.075,0.004,8.606,52.124,5.493
0.981,-0.068,-0.016,8.911,51.331,5.127
0.978,-0.072,-0.041,8.240,50.415,4.211
0.991,-0.069,-0.051,5.554,48.889,2.808
0.999,-0.071,-0.048,3.784,44.617,2.197
0.993,-0.079,-0.043,5.554,39.368,2.686
0.995,-0.070,-0.038,5.615,35.706,3.723
0.993,-0.066,-0.041,6.470,33.447,4.456
0.987,-0.067,-0.055,7.568,32.532,3.906
0.979,-0.059,-0.072,5.737,32.776,3.052
0.978,-0.063,-0.093,4.822,32.837,2.075
0.987,-0.074,-0.108,3.479,30.823,0.916
0.990,-0.073,-0.104,-0.488,27.649,0.549
0.996,-0.084,-0.099,-0.671,22.827,0.671
0.999,-0.090,-0.086,0.244,18.982,1.343
1.004,-0.094,-0.074,0.122,15.930,2.258
1.001,-0.096,-0.062,0.061,14.832,2.869
1.001,-0.094,-0.056,-0.244,15.625,3.601
1.007,-0.097,-0.058,0.366,17.029,4.272
1.003,-0.093,-0.061,-0.244,18.188,5.005
1.000,-0.082,-0.066,-0.488,19.470,5.859
1.004,-0.070,-0.076,0.732,19.836,6.592
1.001,-0.063,-0.084,2.441,18.799,7.263
0.997,-0.053,-0.091,2.747,17.578,6.897
1.000,-0.055,-0.100,2.869,16.174,5.859
0.997,-0.059,-0.102,2.136,15.015,4.333
0.993,-0.062,-0.102,0.732,13.977,3.296
0.990,-0.063,-0.103,1.099,12.878,3.113
0.991,-0.061,-0.104,0.916,11.963,3.540
0.995,-0.067,-0.105,0.610,11.108,3.174
0.991,-0.066,-0.103,-0.427,11.169,2.869
0.994,-0.069,-0.107,0.000,10.742,2.930
0.998,-0.068,-0.113,1.343,9.644,3.540
1.000,-0.071,-0.116,2.197,8.057,4.089
0.996,-0.067,-0.113,1.221,6.470,4.517

0.108,0.246,-1.798,-6.104,-39.795,-90.637
0.012,0.265,-1.886,7.874,-168.091,-106.323
-0.122,0.151,-1.602,25.269,-334.778,-130.310
-0.237,-0.026,-1.066,8.667,-498.291,-152.588
-0.324,-0.157,-0.500,-45.349,-635.071,-160.828
-0.398,-0.227,0.013,-106.384,-745.117,-156.433
-0.505,-0.278,0.506,-158.386,-835.205,-146.545
-0.558,-0.259,0.989,-211.243,-906.189,-134.521
-0.664,-0.134,1.574,-263.367,-960.144,-123.962
-0.868,-0.027,2.214,-296.692,-990.784,-109.558
-0.932,0.189,2.937,-318.726,-970.459,-77.759
-0.880,0.504,3.670,-297.546,-872.375,-40.588
-0.715,0.474,4.000,-180.115,-694.275,-43.274
-0.538,0.239,4.000,-65.125,-445.068,-71.350
-0.421,0.106,3.770,-41.016,-168.762,-88.318
-0.360,-0.024,3.059,-31.067,77.942,-94.238
-0.290,-0.114,2.317,-5.615,256.104,-90.393
-0.199,-0.151,1.722,28.625,356.812,-74.707
-0.076,-0.169,1.274,67.871,399.292,-50.903
0.024,-0.169,0.936,101.257,400.635,-25.330
0.144,-0.161,0.726,125.610,378.906,-2.930
0.255,-0.168,0.594,140.808,343.384,14.343
0.339,-0.174,0.507,139.038,299.255,27.466
0.405,-0.174,0.441,122.192,256.104,36.560
0.469,-0.143,0.412,96.191,217.529,41.870
0.525,-0.128,0.427,74.890,184.570,43.579
0.552,-0.149,0.466,67.871,161.682,41.443
0.596,-0.193,0.500,65.613,147.156,38.086
0.637,-0.238,0.519,59.326,138.733,35.583
0.655,-0.252,0.549,49.255,135.681,32.654
0.665,-0.281,0.566,44.250,133.301,30.640
0.689,-0.326,0.581,42.664,129.700,31.067
0.701,-0.318,0.598,31.860,124.451,34.180
0.711,-0.311,0.607,24.231,118.103,37.598
0.710,-0.289,0.609,23.376,112.915,41.809
0.705,-0.254,0.597,25.574,110.840,47.485
0.715,-0.220,0.578,28.381,110.840,52.490
0.744,-0.166,0.578,29.846,110.596,57.495
0.746,-0.136,0.574,35.217,109.375,60.913
0.765,-0.098,0.575,39.551,108.582,61.584
0.772,-0.073,0.568,41.443,108.093,60.242
0.775,-0.042,0.543,41.443,110.107,56.885
0.804,-0.020,0.507,39.795,112.305,51.575
0.815,-0.034,0.475,37.903,113.098,43.884
0.825,-0.038,0.454,28.015,112.061,36.743
0.842,-0.058,0.434,18.738,107.910,31.250
0.859,-0.085,0.427,12.268,102.234,27.405
0.867,-0.086,0.438,7.324,98.450,26.611
0.869,-0.102,0.440,10.986,96.008,26.611
0.864,-0.107,0.428,14.465,97.595,26.550
0.863,-0.102,0.406,14.709,102.722,25.757
0.878,-0.106,0.365,16.846,107.422,24.597
0.901,-0.112,0.317,17.456,109.680,23.376
0.895,-0.110,0.277,13.733,110.779,21.606
0.884,-0.107,0.234,12.817,110.962,19.836
0.903,-0.105,0.188,15.869,109.070,19.531
0.909,-0.108,0.155,16.846,104.187,20.081
0.910,-0.097,0.134,15.076,98.633,19.775
0.923,-0.096,0.119,12.817,92.285,19.287
0.932,-0.095,0.120,11.169,85.327,18.555
0.932,-0.097,0.122,11.475,78.552,17.822
0.933,-0.099,0.110,12.756,73.181,17.273
0.951,-0.099,0.100,11.597,69.031,17.029
0.953,-0.094,0.107,8.850,64.941,16.846
0.952,-0.091,0.107,8.362,61.951,17.456
0.957,-0.089,0.103,9.399,59.814,18.188
0.968,-0.089,0.103,8.179,57.861,18.311
0.982,-0.085,0.111,5.554,54.810,18.127
0.984,-0.077,0.122,3.296,50.354,18.188
0.970,-0.068,0.129,3.906,47.852,18.188
0.975,-0.053,0.130,4.944,48.279,18.433
0.975,-0.034,0.126,5.920,51.270,18.066
0.984,-0.037,0.108,8.972,54.749,16.968
0.987,-0.033,0.094,7.141,57.068,15.625
0.984,-0.039,0.081,4.272,57.861,13.977
0.981,-0.047,0.061,2.258,58.044,12.329
0.981,-0.055,0.040,0.183,57.861,11.536
0.983,-0.064,0.026,-0.549,56.885,11.108
0.977,-0.061,0.018,0.732,55.725,11.719
0.979,-0.060,0.003,4.944,54.565,12.573
0.989,-0.047,-0.008,6.836,52.917,13.245
0.990,-0.035,-0.012,5.798,50.293,13.306
0.982,-0.032,-0.018,5.615,47.546,12.512
0.983,-0.020,-0.026,4.150,45.837,11.597
0.988,-0.017,-0.035,3.784,43.762,10.620
0.989,-0.028,-0.046,4.395,41.443,8.850
0.992,-0.034,-0.047,2.319,39.734,6.653
0.997,-0.037,-0.045,1.587,37.720,5.676
0.989,-0.037,-0.045,2.869,35.583,5.554
0.988,-0.040,-0.056,4.211,34.363,5.859
0.992,-0.037,-0.072,2.502,33.813,5.554
0.990,-0.039,-0.086,0.366,32.288,4.883
0.985,-0.046,-0.099,-0.671,30.518,4.028
0.994,-0.053,-0.106,-2.197,28.076,3.662
1.001,-0.051,-0.101,-3.662,25.452,3.540
1.001,-0.054,-0.092,-2.625,21.484,4.150
0.998,-0.045,-0.085,-0.732,18.433,5.371
0.993,-0.030,-0.081,0.549,17.700,6.104
0.995,-0.023,-0.084,2.747,17.395,5.981
1.000,-0.026,-0.086,3.662,16.113,5.066
0.992,-0.038,-0.089,2.319,15.259,3.662
0.994,-0.040,-0.091,-0.610,15.747,2.747
0.999,-0.044,-0.097,-0.977,15.442,3.235
1.001,-0.042,-0.095,-0.122,14.160,3.967
0.990,-0.036,-0.086,-0.549,12.878,5.127
0.990,-0.022,-0.081,-0.305,12.634,6.104
0.995,-0.015,-0.089,1.160,13.672,5.981
0.996,-0.012,-0.101,1.831,14.099,4.883
0.990,-0.005,-0.108,0.732,14.343,3.113
0.996,-0.005,-0.115,1.221,13.550,1.648
0.996,-0.015,-0.117,2.563,11.597,0.549
0.999,-0.027,-0.115,1.221,8.911,-0.549
1.002,-0.042,-0.109,-0.671,6.348,-0.916
1.005,-0.054,-0.093,-2.136,3.906,-0.610
1.001,-0.062,-0.078,-1.831,2.136,1.221
1.004,-0.053,-0.070,-1.648,2.991,3.479
1.004,-0.036,-0.075,-1.892,5.371,5.432
1.000,-0.011,-0.082,-0.977,6.958,6.531
1.001,-0.007,-0.094,2.197,7.935,5.615

0.149,0.038,-1.662,47.424,-232.422,-140.991
-0.021,-0.182,-1.384,-5.127,-375.305,-173.157
-0.156,-0.380,-0.838,-61.340,-528.442,-181.091
-0.230,-0.481,-0.230,-95.215,-666.687,-164.795
-0.336,-0.483,0.392,-128.906,-777.161,-135.254
-0.385,-0.386,0.976,-178.101,-857.788,-100.891
-0.425,-0.181,1.587,-233.032,-910.156,-71.838
-0.542,0.001,2.205,-276.794,-924.744,-50.110
-0.568,0.277,2.868,-305.786,-874.146,-19.592
-0.441,0.548,3.495,-271.179,-749.207,6.348
-0.250,0.453,3.829,-148.804,-562.988,-5.554
-0.153,0.228,3.762,-54.260,-325.195,-38.574
-0.124,0.036,3.285,-30.884,-74.585,-61.829
-0.098,-0.113,2.609,-12.939,129.395,-67.200
-0.040,-0.212,2.001,19.348,259.277,-61.035
0.030,-0.264,1.542,54.138,323.914,-44.800
0.108,-0.264,1.206,85.449,343.384,-21.729
0.204,-0.246,0.949,114.685,331.421,2.991
0.290,-0.204,0.760,133.423,305.725,26.855
0.365,-0.140,0.628,134.155,274.902,46.021
0.449,-0.095,0.528,125.793,240.662,56.702
0.513,-0.075,0.465,110.291,201.599,60.059
0.557,-0.071,0.461,84.839,161.499,56.702
0.595,-0.054,0.514,53.040,129.028,49.377
0.629,-0.043,0.594,29.236,104.980,40.894
0.653,-0.085,0.669,23.376,90.454,30.396
0.669,-0.131,0.726,15.808,85.815,22.156
0.686,-0.170,0.771,3.967,89.111,17.822
0.700,-0.207,0.799,-5.066,97.290,17.822
0.705,-0.238,0.803,-6.836,109.070,19.958
0.685,-0.264,0.781,-1.892,122.986,23.499
0.677,-0.258,0.739,5.737,137.878,28.320
0.687,-0.231,0.683,15.869,150.146,34.546
0.701,-0.193,0.619,26.978,156.311,40.466
0.732,-0.159,0.577,35.156,157.593,44.189
0.751,-0.127,0.568,37.231,155.579,46.326
0.764,-0.107,0.564,37.598,151.367,47.180
0.767,-0.093,0.549,36.926,147.766,47.668
0.764,-0.065,0.517,31.006,147.644,46.997
0.772,-0.040,0.474,25.757,149.170,44.495
0.818,-0.029,0.427,23.010,148.682,41.016
0.841,-0.043,0.389,18.982,145.142,36.804
0.853,-0.054,0.370,10.681,141.663,31.616
0.858,-0.054,0.358,4.272,138.794,27.222
0.853,-0.071,0.336,7.263,136.108,25.146
0.861,-0.079,0.303,11.047,134.216,25.696
0.871,-0.079,0.264,10.315,132.507,26.001
0.887,-0.090,0.222,7.202,129.211,24.536
0.897,-0.095,0.183,1.831,124.634,22.278
0.914,-0.114,0.142,-1.770,119.446,18.494
0.921,-0.129,0.118,-3.662,112.305,16.052
0.929,-0.126,0.112,-4.150,104.309,16.602
0.933,-0.116,0.118,-0.183,95.459,19.165
0.932,-0.096,0.130,4.944,88.074,22.278
0.943,-0.089,0.128,7.812,83.496,24.170
0.940,-0.067,0.123,3.845,83.191,24.902
0.934,-0.058,0.104,0.854,85.266,23.193
0.951,-0.063,0.077,0.244,88.440,20.142
0.964,-0.075,0.050,-1.099,88.623,18.311
0.949,-0.068,0.037,-2.869,86.304,17.944
0.967,-0.052,0.033,-0.916,82.031,18.921
0.968,-0.047,0.032,4.272,75.684,20.996
0.965,-0.034,0.029,4.639,71.777,21.790
0.959,-0.013,0.023,1.465,71.594,21.057
0.960,-0.002,0.002,2.747,73.120,19.775
0.969,0.008,-0.015,3.906,73.853,18.738
0.961,0.012,-0.031,3.906,72.937,17.029
0.976,0.017,-0.047,3.235,69.031,15.198
0.990,0.023,-0.050,0.916,61.646,14.038
0.987,0.011,-0.046,-0.427,52.734,12.024
0.978,-0.002,-0.041,-2.441,46.692,10.010
0.970,-0.008,-0.039,-5.005,45.227,9.094
0.974,-0.010,-0.043,-4.639,46.814,8.545
0.992,-0.011,-0.047,-2.563,47.424,8.484
1.001,-0.009,-0.051,-2.075,46.204,8.545
0.989,-0.004,-0.048,-2.686,44.922,9.033
0.982,-0.002,-0.058,-2.686,45.654,8.972
0.981,-0.001,-0.076,-2.686,48.096,8.606
0.966,-0.001,-0.097,-3.235,50.903,7.935
0.964,0.005,-0.125,-2.869,53.589,7.751
0.975,0.011,-0.153,-1.892,53.040,7.507
0.973,0.014,-0.173,-0.732,48.889,6.287
0.969,0.015,-0.184,-0.610,43.823,4.822
0.969,0.009,-0.191,-1.343,38.452,3.235
0.974,-0.007,-0.186,-2.075,33.447,1.770
0.976,-0.012,-0.172,-3.723,29.968,0.854
0.987,-0.020,-0.168,-2.747,28.015,1.221
0.982,-0.020,-0.166,-1.099,26.489,2.075
0.985,-0.016,-0.170,-0.488,25.635,2.808
0.991,-0.014,-0.179,-0.183,24.048,2.808
0.996,-0.016,-0.186,-0.305,21.606,2.563
0.985,-0.020,-0.188,-0.366,18.188,2.319
0.979,-0.022,-0.190,-0.305,15.747,2.258
0.987,-0.020,-0.191,-0.061,13.672,2.502
0.989,-0.012,-0.182,-1.099,11.292,2.869
0.999,-0.006,-0.166,-1.038,8.545,3.723
0.995,0.000,-0.143,-0.488,6.409,4.639
0.992,0.010,-0.127,-0.305,6.836,4.822
0.992,0.012,-0.131,0.244,9.460,4.272
0.989,0.011,-0.146,-0.305,13.306,2.930
0.986,0.003,-0.163,-1.465,16.357,1.282
0.988,-0.006,-0.180,-1.831,17.700,0.610
1.001,-0.017,-0.184,-1.343,16.479,0.488
1.000,-0.030,-0.179,-0.671,12.878,0.977
0.989,-0.031,-0.173,-0.732,10.925,2.075
0.988,-0.017,-0.176,-0.793,10.864,4.028
0.993,0.001,-0.182,0.366,10.559,5.676
0.996,0.011,-0.184,1.221,8.545,6.104
0.992,0.018,-0.173,-0.122,6.470,5.493
0.996,0.018,-0.162,-1.343,5.981,4.333
0.991,0.009,-0.157,-1.160,6.653,2.686
0.995,0.009,-0.157,-1.526,8.057,1.953
0.992,0.006,-0.161,-0.427,9.094,1.831
0.993,0.002,-0.170,0.854,9.949,1.343
0.985,0.000,-0.181,0.854,10.376,1.038
0.986,0.001,-0.195,0.610,10.437,0.854
0.985,-0.002,-0.211,1.099,9.277,0.793
0.984,-0.004,-0.218,1.038,6.897,0.793
0.990,-0.006,-0.215,0.854,3.723,0.977

0.388,0.393,-1.233,-3.235,-107.239,-115.051
0.290,0.325,-1.271,-13.306,-176.270,-148.621
0.188,0.154,-1.196,-28.809,-256.653,-184.998
0.078,-0.103,-1.044,-43.274,-345.337,-210.876
0.002,-0.314,-0.769,-69.031,-439.880,-216.919
-0.086,-0.452,-0.409,-96.130,-525.940,-210.022
-0.141,-0.522,-0.036,-114.136,-599.609,-194.336
-0.131,-0.640,0.335,-134.644,-657.532,-174.377
-0.112,-0.670,0.740,-187.561,-702.698,-150.757
-0.103,-0.542,1.218,-256.042,-740.906,-117.065
-0.208,-0.319,1.778,-299.744,-771.301,-80.750
-0.340,-0.129,2.288,-303.894,-774.414,-45.044
-0.332,0.109,2.788,-283.752,-715.637,-9.644
-0.224,0.248,3.167,-231.384,-602.783,7.996
-0.176,0.241,3.350,-154.236,-448.486,-1.709
-0.133,0.129,3.265,-93.689,-267.334,-24.353
-0.104,0.004,2.939,-60.242,-85.388,-39.734
-0.054,-0.112,2.466,-28.992,68.604,-43.823
-0.005,-0.184,2.008,3.113,177.673,-37.109
0.038,-0.210,1.621,30.457,241.882,-22.461
0.114,-0.200,1.311,53.589,273.865,-4.089
0.186,-0.167,1.082,73.792,282.593,13.062
0.251,-0.141,0.910,89.172,273.376,28.931
0.312,-0.121,0.791,97.595,256.287,40.771
0.371,-0.110,0.696,95.947,236.389,47.485
0.427,-0.107,0.636,84.045,215.942,50.110
0.482,-0.100,0.612,67.566,197.021,48.523
0.556,-0.110,0.630,56.641,178.589,44.434
0.573,-0.149,0.664,49.744,164.001,40.222
0.573,-0.185,0.670,40.771,158.325,37.231
0.595,-0.189,0.656,29.175,161.133,35.950
0.624,-0.203,0.610,26.123,165.833,35.339
0.641,-0.210,0.558,28.503,169.556,33.813
0.670,-0.220,0.513,31.616,170.776,32.532
0.699,-0.246,0.484,33.691,165.894,33.081
0.714,-0.246,0.469,30.334,157.410,34.729
0.736,-0.227,0.471,27.466,146.851,37.537
0.747,-0.202,0.481,31.372,134.644,41.992
0.753,-0.189,0.478,36.377,123.474,46.997
0.751,-0.139,0.485,34.546,117.554,50.354
0.760,-0.090,0.479,33.997,114.807,51.941
0.784,-0.091,0.454,37.903,112.122,50.964
0.811,-0.056,0.449,31.555,109.436,50.842
0.833,-0.039,0.441,26.306,105.835,48.157
0.844,-0.037,0.433,26.794,103.149,41.809
0.836,-0.036,0.422,23.926,102.112,35.583
0.839,-0.047,0.398,20.630,102.356,30.579
0.849,-0.058,0.364,16.296,102.539,28.015
0.858,-0.054,0.340,11.719,101.501,26.245
0.874,-0.071,0.318,12.512,97.717,24.780
0.887,-0.081,0.310,12.207,92.285,23.315
0.911,-0.091,0.310,8.179,87.036,21.912
0.900,-0.106,0.307,5.798,83.679,20.020
0.891,-0.105,0.303,4.456,84.656,18.127
0.908,-0.112,0.283,7.507,86.975,17.822
0.927,-0.119,0.260,10.803,87.585,18.860
0.937,-0.112,0.249,9.277,86.487,19.775
0.926,-0.108,0.244,8.057,85.693,19.836
0.921,-0.110,0.226,10.437,85.449,19.836
0.932,-0.099,0.203,12.573,86.304,20.691
0.928,-0.087,0.179,13.855,86.670,20.691
0.938,-0.078,0.154,16.235,84.900,20.142
0.957,-0.070,0.130,15.564,80.933,19.775
0.958,-0.062,0.116,13.489,75.500,18.616
0.950,-0.060,0.104,11.719,70.740,17.090
0.946,-0.054,0.098,10.620,68.237,15.564
0.964,-0.062,0.084,11.230,65.063,14.587
0.972,-0.070,0.081,9.277,59.204,15.015
0.969,-0.068,0.084,4.211,54.077,15.320
0.972,-0.072,0.088,0.854,50.232,15.198
0.999,-0.072,0.104,-0.610,46.082,15.625
0.989,-0.073,0.126,-1.648,42.603,17.090
0.981,-0.062,0.137,-2.136,43.518,18.127
0.973,-0.047,0.134,-0.977,48.645,18.616
0.985,-0.037,0.116,2.380,54.688,18.799
0.989,-0.032,0.098,5.188,58.289,18.616
0.997,-0.033,0.088,5.798,59.387,17.822
0.999,-0.032,0.080,4.333,58.655,17.090
0.982,-0.019,0.067,3.418,58.594,16.602
0.975,-0.005,0.045,5.249,59.937,16.418
0.973,-0.001,0.017,6.836,61.340,15.747
0.980,0.001,-0.010,4.822,62.012,14.160
0.980,-0.002,-0.030,1.831,60.425,11.963
0.993,-0.014,-0.037,0.183,56.702,9.766
0.988,-0.023,-0.034,0.183,52.734,9.094
0.989,-0.028,-0.042,2.075,49.622,9.338
0.984,-0.020,-0.051,2.441,48.157,9.644
0.980,-0.017,-0.066,3.540,47.424,9.216
0.984,-0.021,-0.081,3.784,46.387,8.240
0.984,-0.023,-0.093,0.854,44.678,7.385
0.988,-0.028,-0.103,-1.404,42.114,6.531
0.999,-0.035,-0.105,-2.441,39.001,6.348
0.976,-0.036,-0.108,-2.136,36.316,7.385
0.974,-0.026,-0.119,-1.221,36.560,8.606
0.991,-0.014,-0.129,0.000,35.889,9.216
0.988,-0.023,-0.137,1.770,32.227,8.667
0.990,-0.023,-0.134,0.183,29.114,7.324
1.007,-0.024,-0.120,-1.465,26.245,6.287
1.000,-0.028,-0.103,0.732,23.071,6.531
1.000,-0.019,-0.099,3.601,21.790,7.629
0.999,-0.008,-0.101,4.395,21.973,8.850
0.999,-0.002,-0.109,3.601,23.193,8.911
1.000,-0.007,-0.120,2.136,23.376,7.812
1.000,-0.007,-0.125,0.061,21.301,7.080
1.000,-0.005,-0.124,-0.244,18.188,7.263
0.997,-0.001,-0.121,1.099,15.381,7.568
0.989,0.002,-0.115,0.854,13.916,7.629
0.984,0.017,-0.113,-0.305,15.442,7.446
0.983,0.028,-0.125,1.465,16.968,7.324
0.984,0.030,-0.142,3.540,17.883,6.714
0.989,0.025,-0.152,2.441,17.517,5.066
0.995,0.004,-0.156,-0.671,15.320,2.869
0.990,-0.014,-0.147,-3.967,13.367,1.770
0.994,-0.019,-0.138,-6.042,12.756,2.319
0.998,-0.010,-0.134,-3.418,12.390,4.150
1.001,0.005,-0.131,-0.366,11.841,6.287
1.000,0.014,-0.134,1.648,11.902,6.897
0.998,0.017,-0.136,1.343,12.634,5.737
0.998,0.009,-0.145,0.977,12.695,3.967

-0.909,-0.004,2.276,-277.527,-1055.359,-71.045
-1.127,0.240,3.182,-296.753,-1058.777,-51.331
-1.029,0.634,3.995,-291.138,-936.157,-26.550
-0.845,0.560,4.000,-174.561,-712.524,-40.100
-0.607,0.166,4.000,-52.063,-414.246,-88.013
-0.501,0.007,3.957,-51.575,-104.614,-110.962
-0.483,-0.154,3.156,-39.490,150.635,-112.610
-0.388,-0.220,2.337,1.831,320.312,-100.159
-0.277,-0.261,1.702,52.429,411.865,-74.707
-0.122,-0.259,1.260,105.164,445.557,-42.664
-0.003,-0.245,0.937,143.738,440.674,-10.742
0.161,-0.276,0.645,169.067,414.185,16.174
0.264,-0.260,0.423,166.748,364.807,40.588
0.338,-0.194,0.317,142.273,303.589,57.800
0.400,-0.136,0.301,119.934,243.896,65.857
0.487,-0.128,0.332,106.628,191.101,66.223
0.547,-0.137,0.414,86.914,146.912,62.683
0.605,-0.138,0.514,56.763,114.136,57.007
0.652,-0.137,0.627,31.372,96.130,49.438
0.648,-0.155,0.725,16.907,91.248,42.847
0.653,-0.179,0.775,13.123,98.267,37.415
0.665,-0.218,0.772,13.733,113.647,32.166
0.668,-0.252,0.738,12.573,129.456,28.564
0.688,-0.266,0.699,8.484,143.005,27.649
0.692,-0.272,0.662,9.033,150.818,29.358
0.696,-0.271,0.634,16.846,152.588,33.081
0.729,-0.262,0.624,23.865,148.437,39.856
0.735,-0.241,0.636,27.771,143.188,46.753
0.740,-0.206,0.654,31.250,140.198,52.002
0.735,-0.161,0.656,37.354,141.296,56.396
0.743,-0.115,0.625,43.335,147.156,59.509
0.750,-0.066,0.577,44.983,155.396,60.547
0.779,-0.025,0.511,43.701,162.598,59.082
0.782,-0.011,0.444,42.847,166.260,54.443
0.817,-0.014,0.387,36.072,164.978,49.805
0.824,-0.005,0.356,27.344,159.851,46.143
0.853,-0.020,0.317,24.719,153.381,40.161
0.849,-0.041,0.282,20.569,146.912,33.997
0.849,-0.048,0.252,13.245,141.846,29.846
0.870,-0.064,0.228,10.254,136.047,27.405
0.903,-0.097,0.210,9.094,127.380,25.879
0.900,-0.108,0.204,4.639,120.789,24.475
0.890,-0.099,0.189,1.099,118.835,23.987
0.895,-0.086,0.160,5.554,119.202,25.085
0.906,-0.066,0.123,11.902,119.263,26.672
0.910,-0.059,0.083,14.893,117.371,26.428
0.907,-0.050,0.052,11.841,115.479,23.621
0.915,-0.044,0.026,8.179,112.976,19.836
0.916,-0.059,0.002,8.545,108.948,16.968
0.939,-0.078,-0.016,8.972,103.455,15.015
0.949,-0.089,-0.025,8.240,95.886,14.465
0.957,-0.094,-0.032,7.080,86.792,15.137
0.950,-0.089,-0.036,6.165,78.613,16.357
