aX,aY,aZ,gX,gY,gZ
0.247,0.387,1.710,35.522,12.878,24.170
0.240,0.443,1.972,71.167,40.405,31.616
0.233,0.515,2.207,110.596,82.520,40.649
0.228,0.581,2.457,145.813,140.320,48.767
0.220,0.577,2.641,171.814,220.154,55.359
0.091,0.481,2.657,177.490,326.355,62.317
-0.072,0.367,2.460,163.696,455.872,69.397
-0.145,0.325,2.083,143.066,577.026,71.777
-0.077,0.358,1.630,141.479,673.828,57.190
-0.157,0.138,1.218,149.658,729.614,24.109
-0.128,0.003,0.818,119.202,751.831,15.564
-0.097,-0.079,0.449,90.576,737.000,31.372
0.010,-0.165,0.113,79.895,700.439,50.903
0.147,-0.094,-0.224,59.204,658.813,65.613
0.125,-0.028,-0.504,37.537,611.511,61.462
0.078,0.106,-0.728,28.564,558.960,55.725
0.065,0.248,-0.961,42.786,503.357,47.485
0.105,0.358,-1.153,57.495,440.674,34.790
0.170,0.389,-1.270,52.490,368.774,16.479
0.227,0.307,-1.317,32.471,291.382,-7.446
0.260,0.138,-1.300,6.531,215.698,-27.283
0.306,-0.038,-1.248,-18.738,146.362,-35.034
0.360,-0.163,-1.182,-37.415,85.205,-28.503
0.401,-0.224,-1.107,-49.072,33.875,-13.000
0.444,-0.225,-1.048,-57.922,-7.996,4.761
0.478,-0.172,-0.991,-65.674,-44.922,21.484
0.500,-0.101,-0.917,-68.359,-79.529,33.997
0.510,-0.024,-0.824,-66.284,-111.877,41.138
0.528,0.056,-0.721,-59.082,-138.855,42.603
0.529,0.129,-0.625,-44.800,-159.668,38.086
0.551,0.180,-0.543,-23.804,-174.011,27.466
0.602,0.206,-0.487,-1.709,-184.387,11.597
0.656,0.207,-0.423,15.015,-193.726,-5.737
0.727,0.163,-0.351,25.696,-203.674,-24.902
0.788,0.071,-0.273,27.405,-214.294,-43.396
0.835,-0.021,-0.187,21.301,-225.281,-55.176
0.887,-0.100,-0.088,16.052,-236.389,-58.411
0.901,-0.174,0.011,17.639,-245.239,-55.115
0.915,-0.246,0.099,18.127,-247.131,-46.997
0.915,-0.283,0.178,9.888,-243.103,-32.593
0.902,-0.268,0.247,-0.122,-237.183,-13.245
0.891,-0.222,0.302,-2.136,-230.652,5.310
0.896,-0.155,0.343,2.380,-225.830,20.447
0.903,-0.076,0.392,7.690,-224.731,31.921
0.885,0.009,0.453,7.996,-227.844,38.940
0.862,0.097,0.525,4.822,-230.408,40.710
0.833,0.151,0.599,2.808,-229.736,37.231
0.834,0.196,0.674,0.488,-225.647,31.189
0.839,0.217,0.741,-0.793,-218.079,23.987
0.852,0.207,0.791,-1.587,-205.811,13.977
0.837,0.161,0.820,-4.150,-189.270,2.197
0.812,0.091,0.827,-13.794,-168.396,-6.104
0.774,0.038,0.822,-26.917,-146.667,-8.179
0.769,0.034,0.810,-35.645,-126.831,-2.747
0.787,0.042,0.797,-33.020,-112.183,3.784
0.787,0.041,0.790,-24.048,-103.149,7.935
0.783,0.047,0.800,-19.409,-98.083,10.620
0.769,0.069,0.820,-18.982,-94.727,12.878
0.750,0.107,0.845,-17.700,-90.088,14.709
0.730,0.142,0.854,-14.832,-83.130,15.320
0.714,0.165,0.849,-10.010,-72.876,13.123
0.707,0.177,0.833,-6.592,-61.279,8.911
0.712,0.166,0.812,-4.883,-52.246,3.540
0.723,0.114,0.798,-6.348,-47.058,-1.770
0.722,0.072,0.812,-14.832,-43.213,-5.066
0.714,0.058,0.833,-20.569,-39.978,-3.845
0.708,0.059,0.844,-15.503,-36.987,-0.244
0.701,0.073,0.848,-7.507,-32.410,4.395
0.692,0.092,0.836,-3.601,-25.574,7.690
0.682,0.114,0.820,-4.272,-17.212,8.362
0.680,0.125,0.797,-4.822,-9.277,7.324
0.677,0.123,0.772,-3.540,-4.028,5.188
0.682,0.110,0.754,-3.418,-1.587,2.686
0.686,0.090,0.748,-4.944,-1.099,0.549
0.685,0.076,0.756,-6.836,-1.099,-0.244
0.678,0.076,0.774,-7.935,-0.671,1.038
0.688,0.080,0.789,-6.409,0.427,2.869
0.687,0.087,0.802,-5.249,2.991,4.272
0.681,0.093,0.803,-4.944,7.507,4.639
0.684,0.084,0.789,-3.906,12.939,4.150
0.675,0.086,0.766,-5.066,18.738,4.089
0.670,0.089,0.732,-4.517,23.254,3.967
0.672,0.088,0.696,-1.465,25.269,3.540
0.671,0.092,0.672,1.099,24.780,2.869
0.685,0.084,0.657,2.136,21.973,1.343
0.691,0.063,0.655,-0.610,18.188,0.488
0.686,0.052,0.668,-5.981,15.503,1.221
0.685,0.052,0.681,-8.057,13.123,3.357
0.680,0.053,0.689,-4.639,11.719,6.042
0.679,0.060,0.691,-2.380,11.047,7.874
0.675,0.064,0.688,-2.136,11.230,8.789
0.662,0.082,0.686,-2.686,10.986,9.583
0.669,0.089,0.681,-2.197,11.475,9.399
0.649,0.100,0.680,-1.221,12.817,9.766
0.650,0.124,0.668,0.488,14.343,9.705
0.650,0.120,0.653,6.897,15.076,7.812
0.669,0.128,0.638,8.545,15.259,6.775
0.647,0.135,0.633,5.310,14.771,5.371
0.665,0.146,0.625,3.967,14.038,3.540
0.681,0.123,0.611,4.089,12.756,0.427
0.695,0.099,0.600,-0.793,11.292,-1.892
0.700,0.078,0.596,-6.531,9.216,-3.540
0.705,0.053,0.601,-7.080,5.554,-3.479
0.713,0.039,0.616,-4.150,1.465,-1.831
0.718,0.039,0.641,-2.502,-1.587,0.732
0.721,0.055,0.667,-1.831,-2.747,3.662
0.726,0.083,0.685,-0.366,-2.380,6.287
0.712,0.108,0.690,3.723,-1.038,8.545
0.714,0.137,0.684,5.859,1.465,9.460
0.706,0.156,0.672,6.165,3.296,8.850
0.708,0.171,0.661,4.944,3.723,7.324
0.708,0.171,0.654,3.723,2.625,5.310
0.706,0.160,0.656,2.014,1.160,2.991
0.704,0.143,0.661,-0.305,-0.183,1.160
0.703,0.124,0.667,-2.625,-0.916,0.488
0.701,0.116,0.672,-5.615,-0.977,0.977
0.699,0.120,0.680,-6.226,-0.916,2.258
0.696,0.131,0.679,-3.479,-0.488,3.662
0.695,0.145,0.673,-0.793,0.427,4.272

0.772,0.308,1.561,34.790,-1.709,6.836
0.743,0.348,1.880,52.246,21.118,11.108
0.786,0.378,2.204,62.256,73.853,14.038
0.675,0.342,2.383,77.881,154.419,10.986
0.527,0.284,2.392,92.834,269.714,6.042
0.327,0.207,2.163,100.281,407.410,3.723
0.196,0.168,1.750,108.887,542.908,1.648
0.231,0.133,1.196,125.854,645.569,4.700
0.260,0.097,0.610,135.132,681.946,13.611
0.360,0.082,0.192,107.239,661.377,24.109
0.502,0.042,-0.056,58.105,607.544,30.945
0.479,-0.050,-0.138,12.390,543.213,35.461
0.484,-0.116,-0.128,-19.775,493.286,42.542
0.546,-0.174,-0.159,-36.377,454.651,54.932
0.454,-0.141,-0.231,-51.208,434.998,70.190
0.312,-0.035,-0.393,-51.453,431.763,81.482
0.237,0.086,-0.671,-31.128,434.326,85.571
0.195,0.216,-0.959,-13.916,423.706,80.811
0.134,0.287,-1.172,-3.174,392.822,65.735
0.112,0.317,-1.324,1.343,343.689,46.082
0.111,0.297,-1.406,0.671,283.142,24.292
0.128,0.218,-1.407,-3.662,219.482,4.028
0.176,0.114,-1.353,-11.047,155.762,-9.827
0.210,-0.001,-1.273,-17.517,103.333,-18.188
0.257,-0.096,-1.217,-21.606,63.477,-18.982
0.294,-0.138,-1.194,-23.865,32.654,-11.841
0.306,-0.138,-1.203,-24.231,6.836,-1.709
0.310,-0.103,-1.237,-26.428,-16.541,8.301
0.328,-0.062,-1.260,-31.311,-43.884,17.700
0.349,-0.025,-1.234,-37.537,-77.332,24.231
0.372,0.023,-1.165,-41.016,-112.061,27.832
0.380,0.082,-1.086,-38.391,-143.616,28.748
0.392,0.139,-1.014,-32.654,-169.556,26.306
0.418,0.176,-0.951,-23.865,-191.101,18.433
0.446,0.194,-0.893,-11.292,-210.327,6.348
0.464,0.205,-0.827,3.296,-229.919,-7.629
0.486,0.211,-0.751,23.560,-249.390,-24.414
0.507,0.205,-0.668,47.852,-269.531,-42.053
0.526,0.186,-0.585,66.772,-290.405,-58.655
0.562,0.141,-0.501,74.036,-309.814,-73.181
0.614,0.047,-0.415,71.716,-328.613,-84.839
0.643,-0.075,-0.309,59.998,-348.022,-90.576
0.666,-0.182,-0.173,37.903,-365.295,-86.792
0.672,-0.239,-0.013,13.977,-378.723,-71.777
0.673,-0.233,0.145,-1.282,-385.925,-49.255
0.702,-0.218,0.279,-8.362,-387.024,-27.466
0.760,-0.196,0.412,-16.846,-383.301,-9.460
0.792,-0.163,0.544,-27.527,-376.587,5.981
0.796,-0.116,0.669,-35.889,-366.394,19.165
0.798,-0.049,0.777,-40.955,-348.877,30.273
0.788,0.029,0.865,-40.955,-325.623,38.757
0.792,0.122,0.926,-36.865,-299.683,44.495
0.790,0.206,0.964,-30.823,-273.682,45.837
0.779,0.268,0.995,-25.940,-246.887,40.894
0.780,0.308,1.015,-24.597,-218.689,32.227
0.806,0.324,1.029,-24.841,-191.040,21.301
0.817,0.311,1.037,-24.292,-163.757,7.080
0.794,0.259,1.035,-24.353,-138.062,-7.019
0.775,0.203,1.028,-27.649,-115.784,-16.541
0.770,0.150,1.013,-30.029,-95.581,-20.386
0.771,0.096,0.990,-26.184,-77.209,-20.935
0.769,0.051,0.958,-21.606,-60.974,-18.494
0.763,0.034,0.930,-20.264,-46.692,-13.611
0.756,0.047,0.901,-18.372,-35.095,-7.446
0.749,0.069,0.864,-12.085,-26.550,-2.747
0.741,0.094,0.832,-6.226,-18.677,-0.916
0.737,0.120,0.802,-3.052,-11.719,-0.610
0.736,0.134,0.770,-1.038,-6.165,-1.831
0.739,0.116,0.737,-0.305,-3.357,-4.944
0.726,0.106,0.714,-3.174,-3.174,-7.690
0.721,0.106,0.703,-6.897,-4.028,-7.874
0.723,0.102,0.695,-5.676,-5.249,-7.141
0.734,0.089,0.698,-2.686,-6.775,-7.385
0.742,0.060,0.700,-1.221,-6.714,-8.057
0.739,0.035,0.705,-3.296,-4.272,-7.751
0.739,0.022,0.708,-7.141,-1.099,-5.188
0.736,0.019,0.698,-6.836,2.136,-2.197
0.733,0.024,0.677,-3.418,5.371,0.305
0.725,0.046,0.653,-1.587,7.874,3.540
0.722,0.069,0.629,0.488,8.972,5.493
0.728,0.074,0.611,2.563,7.629,5.676
0.727,0.075,0.615,0.671,4.639,4.944
0.728,0.080,0.635,-3.052,0.793,4.639
0.733,0.069,0.661,-3.296,-2.075,4.395
0.727,0.079,0.687,-4.578,-2.502,5.127
0.726,0.094,0.701,-3.906,-1.404,6.042
0.729,0.095,0.697,-0.549,0.244,5.310
0.727,0.098,0.693,0.061,2.014,4.822
0.724,0.108,0.686,-1.038,3.662,4.395
0.721,0.106,0.679,0.793,4.028,3.113
0.723,0.112,0.676,1.831,3.479,1.770
0.719,0.103,0.677,2.808,2.502,0.549
0.724,0.097,0.671,2.258,2.747,-0.427
0.719,0.094,0.670,0.244,4.028,-0.793
0.721,0.094,0.666,0.183,5.310,-0.793
0.723,0.090,0.660,1.953,5.920,-0.793
0.724,0.088,0.649,2.441,6.409,-0.793
0.728,0.079,0.641,1.038,6.653,-0.671
0.727,0.075,0.639,-1.709,6.042,-0.671
0.727,0.075,0.641,-3.296,4.517,-0.183
0.725,0.076,0.641,-2.869,3.357,0.793
0.726,0.087,0.645,-2.258,2.380,1.648
0.728,0.092,0.650,-1.526,1.343,1.831
0.728,0.095,0.660,-1.282,0.671,1.038
0.727,0.088,0.672,-0.732,0.610,0.061
0.727,0.087,0.678,-0.061,1.282,-0.061
0.726,0.087,0.673,1.892,2.686,-0.244
0.727,0.085,0.661,4.333,3.906,-0.488
0.727,0.087,0.649,4.883,4.944,-0.366
0.727,0.091,0.638,3.784,5.188,0.000
0.730,0.087,0.632,2.808,4.272,-0.427
0.726,0.090,0.638,0.122,2.747,-0.427
0.726,0.093,0.650,-0.732,0.854,-0.427
0.728,0.088,0.656,0.671,-0.061,-0.671
0.730,0.084,0.657,0.977,-0.061,-0.916
0.731,0.072,0.660,0.183,0.244,-1.160
0.734,0.068,0.661,-0.427,0.488,-0.793
0.735,0.066,0.659,0.366,0.732,-0.244
0.732,0.070,0.663,0.793,1.038,1.282

0.833,0.248,1.447,14.587,-2.136,2.075
0.896,0.247,1.778,32.654,-8.728,3.601
0.850,0.219,2.144,40.039,8.240,1.404
0.727,0.181,2.490,31.067,65.369,-1.648
0.537,0.130,2.735,33.447,169.617,1.587
0.473,-0.029,2.730,60.608,307.007,6.226
0.386,-0.210,2.587,70.313,443.420,16.541
0.097,-0.314,2.370,50.537,571.533,35.950
-0.133,-0.235,2.004,43.213,696.289,63.965
-0.257,-0.195,1.495,73.975,794.250,91.492
-0.457,-0.166,0.884,98.877,864.807,113.708
-0.690,0.028,0.227,85.693,907.776,135.681
-0.798,0.323,-0.423,82.397,918.701,154.541
-0.883,0.603,-1.083,100.464,890.259,165.100
-0.890,0.853,-1.705,108.337,820.801,161.682
-0.815,0.984,-2.146,84.595,706.543,135.254
-0.635,0.972,-2.332,45.410,555.298,85.876
-0.505,0.694,-2.258,4.578,393.799,23.926
-0.381,0.310,-2.024,-51.147,245.422,-20.935
-0.253,-0.013,-1.743,-97.351,123.291,-38.208
-0.185,-0.198,-1.497,-105.164,37.842,-33.691
-0.151,-0.233,-1.351,-81.421,-9.888,-16.907
-0.065,-0.155,-1.309,-49.561,-33.752,0.732
-0.019,-0.060,-1.315,-30.151,-49.805,11.414
0.001,0.036,-1.309,-24.841,-71.533,17.151
0.018,0.114,-1.286,-23.193,-98.206,19.043
0.068,0.171,-1.251,-23.743,-125.854,17.578
0.128,0.204,-1.199,-26.062,-152.649,12.695
0.182,0.212,-1.145,-28.198,-176.880,5.615
0.229,0.212,-1.089,-29.968,-198.853,-0.977
0.280,0.213,-1.036,-27.527,-218.750,-7.690
0.346,0.204,-0.991,-18.005,-237.610,-15.625
0.388,0.214,-0.942,-5.859,-257.690,-23.804
0.406,0.250,-0.876,7.874,-279.358,-33.875
0.415,0.285,-0.804,28.076,-302.307,-47.180
0.435,0.296,-0.723,49.438,-327.698,-64.331
0.457,0.265,-0.616,63.416,-356.812,-84.106
0.445,0.195,-0.461,66.101,-387.207,-102.722
0.462,0.099,-0.294,61.035,-414.307,-118.164
0.484,-0.008,-0.105,53.101,-437.195,-126.038
0.526,-0.111,0.086,41.809,-454.346,-124.756
0.589,-0.205,0.274,25.024,-464.294,-113.403
0.633,-0.262,0.454,-0.549,-464.539,-92.712
0.669,-0.257,0.627,-31.738,-451.843,-67.261
0.681,-0.192,0.782,-54.626,-427.124,-40.405
0.712,-0.103,0.906,-58.533,-395.020,-15.747
0.760,-0.021,0.992,-49.133,-360.291,0.549
0.789,0.049,1.048,-42.114,-324.707,9.277
0.815,0.103,1.096,-44.800,-289.673,10.925
0.827,0.135,1.135,-51.086,-255.920,5.737
0.833,0.140,1.161,-53.711,-223.511,-1.343
0.823,0.124,1.177,-53.345,-191.833,-8.057
0.811,0.113,1.186,-49.622,-159.241,-13.245
0.799,0.105,1.174,-37.964,-127.808,-15.381
0.795,0.093,1.140,-22.156,-97.534,-15.137
0.789,0.086,1.093,-9.277,-67.139,-14.404
0.790,0.075,1.022,-1.648,-40.222,-13.428
0.786,0.059,0.942,3.784,-19.897,-13.062
0.785,0.043,0.867,5.798,-6.653,-13.000
0.778,0.028,0.812,4.395,-1.038,-13.062
0.779,0.009,0.778,2.258,-0.183,-12.939
0.772,-0.010,0.762,0.549,-1.038,-11.902
0.776,-0.015,0.747,-0.671,-1.282,-10.071
0.774,-0.014,0.733,-1.465,0.000,-7.751
0.778,-0.009,0.716,-1.465,2.380,-5.005
0.774,0.000,0.706,-1.404,5.127,-3.357
0.779,0.003,0.695,-1.709,6.470,-2.258
0.778,-0.001,0.683,-2.136,7.629,-2.136
0.778,-0.008,0.668,-3.723,9.521,-2.380
0.777,-0.008,0.653,-6.348,12.085,-2.136
0.779,-0.012,0.635,-5.981,13.916,-2.014
0.775,-0.024,0.620,-3.540,15.076,-2.319
0.765,-0.029,0.602,-2.441,15.625,-1.831
0.779,-0.026,0.584,-2.441,14.954,-1.221
0.779,-0.027,0.576,-1.465,12.939,-1.038
0.778,-0.020,0.574,-1.038,10.315,-0.732
0.774,-0.011,0.574,0.793,7.263,-0.549
0.784,-0.011,0.574,3.906,4.456,-0.183
0.785,-0.010,0.582,4.700,1.892,0.305
0.780,0.003,0.597,1.831,0.549,0.854
0.784,0.005,0.609,1.709,-0.549,0.549
0.791,-0.001,0.616,3.052,-0.916,-0.305
0.786,-0.000,0.628,1.343,-0.671,-0.427
0.779,0.003,0.633,-0.122,0.061,0.366
0.784,0.006,0.632,0.488,1.221,1.038
0.774,0.012,0.629,0.793,2.441,1.709
0.781,0.020,0.620,0.793,3.845,1.892
0.781,0.020,0.614,0.854,5.127,1.953
0.774,0.032,0.612,-0.916,6.226,2.197
0.770,0.038,0.606,-1.343,6.470,2.014
0.767,0.043,0.604,-1.282,6.348,1.587
0.770,0.046,0.602,-1.526,5.615,0.671
0.774,0.036,0.602,-1.892,4.333,-0.427
0.771,0.027,0.604,-3.174,4.150,-1.160
0.771,0.024,0.607,-4.700,3.906,-1.282
0.773,0.015,0.603,-3.235,3.784,-1.343
0.775,0.010,0.598,-2.075,4.150,-1.282
0.782,0.008,0.591,-1.892,4.028,-1.221
0.785,0.005,0.588,-1.770,3.662,-1.221
0.781,0.008,0.588,-2.136,3.113,-1.099
0.782,0.011,0.588,-1.587,2.747,-1.038
0.782,0.008,0.590,0.000,1.892,-1.099
0.781,0.004,0.592,1.099,1.099,-1.404
0.787,-0.003,0.589,1.526,0.793,-1.587
0.786,-0.008,0.589,0.366,1.221,-1.587
0.781,-0.001,0.592,-1.709,1.221,-1.282
0.782,-0.002,0.597,-0.610,0.671,-1.038
0.786,-0.008,0.599,1.343,0.000,-0.854
0.786,-0.011,0.606,0.427,-0.122,-0.549
0.783,-0.004,0.612,-1.465,-0.061,0.244
0.783,-0.005,0.609,-0.854,0.427,0.916
0.784,0.002,0.611,-0.549,1.282,1.770
0.783,0.007,0.615,-0.305,1.099,2.014
0.782,0.007,0.620,-0.122,0.854,2.014
0.778,0.014,0.625,-1.343,1.343,1.831
0.773,0.017,0.626,-0.916,2.319,1.709
0.776,0.017,0.620,1.282,3.296,1.221
0.780,0.011,0.611,2.136,3.845,0.793
0.782,0.008,0.602,0.732,4.272,0.427

0.931,0.154,1.373,5.066,-0.183,9.277
0.919,0.182,1.726,1.404,1.221,14.587
0.862,0.265,2.096,-10.742,19.226,20.508
0.722,0.256,2.385,-8.423,83.618,18.433
0.503,0.175,2.482,10.864,193.665,7.446
0.383,0.107,2.407,26.306,330.566,-1.099
0.382,-0.003,2.176,43.823,470.276,-4.822
0.268,-0.116,1.861,58.228,582.214,-1.404
0.150,-0.147,1.538,59.692,662.659,13.611
0.085,-0.164,1.185,58.838,721.863,32.837
-0.011,-0.179,0.802,53.711,759.338,54.932
-0.230,-0.133,0.358,37.292,792.725,77.820
-0.485,-0.011,-0.136,26.978,827.881,96.252
-0.655,0.142,-0.730,43.762,848.572,109.009
-0.757,0.340,-1.314,71.472,842.407,113.647
-0.734,0.506,-1.890,93.323,789.062,106.323
-0.679,0.609,-2.295,92.590,674.500,88.684
-0.618,0.577,-2.447,66.772,513.733,59.692
-0.503,0.399,-2.347,16.541,338.379,23.987
-0.389,0.134,-2.086,-43.213,180.725,-5.615
-0.308,-0.097,-1.800,-87.952,58.289,-20.081
-0.198,-0.238,-1.535,-97.046,-25.269,-18.616
-0.121,-0.310,-1.360,-83.984,-73.975,-8.179
-0.036,-0.295,-1.279,-78.308,-102.661,10.803
0.004,-0.226,-1.236,-80.017,-122.009,30.090
0.055,-0.144,-1.203,-77.637,-137.451,44.861
0.117,-0.062,-1.155,-72.571,-152.405,54.382
0.190,-0.003,-1.095,-68.054,-165.100,57.068
0.243,0.026,-1.025,-62.500,-174.561,55.176
0.299,0.048,-0.962,-55.847,-179.138,50.720
0.362,0.064,-0.922,-46.509,-179.443,46.692
0.413,0.080,-0.902,-30.701,-179.871,44.983
0.480,0.121,-0.901,-7.202,-182.251,44.495
0.510,0.177,-0.889,23.010,-188.904,39.856
0.519,0.224,-0.866,56.335,-201.904,29.968
0.523,0.268,-0.819,81.177,-220.886,17.090
0.552,0.319,-0.744,92.285,-244.385,2.686
0.603,0.371,-0.631,95.337,-268.921,-15.869
0.599,0.356,-0.520,104.248,-289.795,-42.480
0.604,0.297,-0.423,115.112,-307.922,-67.993
0.617,0.200,-0.333,116.516,-322.937,-87.219
0.663,0.112,-0.239,103.027,-333.618,-98.267
0.698,0.024,-0.124,81.604,-342.529,-98.938
0.728,-0.045,0.003,57.739,-348.450,-90.332
0.741,-0.053,0.129,30.945,-347.961,-73.730
0.763,-0.028,0.245,11.902,-340.454,-55.603
0.807,-0.005,0.339,3.967,-328.125,-41.992
0.860,-0.003,0.422,0.854,-313.843,-34.180
0.912,-0.032,0.493,-2.380,-297.974,-31.067
0.948,-0.072,0.560,-11.047,-280.640,-29.663
0.961,-0.083,0.633,-22.461,-262.207,-26.733
0.956,-0.085,0.697,-27.283,-242.859,-20.996
0.951,-0.052,0.744,-22.644,-221.069,-12.146
0.920,0.004,0.776,-13.123,-197.571,-3.113
0.924,0.059,0.793,-2.747,-171.875,2.075
0.940,0.109,0.807,4.028,-147.400,4.089
0.953,0.129,0.812,8.728,-124.512,1.709
0.945,0.137,0.810,9.521,-102.722,-2.441
0.926,0.132,0.796,7.202,-81.482,-7.751
0.921,0.121,0.774,4.089,-60.974,-12.207
0.922,0.092,0.740,3.906,-42.053,-16.296
0.918,0.043,0.695,5.676,-26.855,-18.982
0.922,-0.001,0.651,2.991,-15.015,-19.592
0.911,-0.018,0.611,-2.991,-5.432,-17.334
0.902,-0.022,0.573,-5.676,0.122,-13.794
0.906,-0.032,0.535,-2.380,3.174,-10.803
0.903,-0.029,0.505,0.732,4.028,-7.812
0.896,-0.010,0.487,0.244,2.808,-4.639
0.898,-0.001,0.472,-0.366,0.244,-3.113
0.902,-0.000,0.460,-1.099,-1.831,-3.662
0.890,0.002,0.456,-4.028,-2.991,-4.150
0.885,0.001,0.455,-6.287,-3.906,-4.639
0.886,-0.008,0.452,-4.639,-4.028,-6.104
0.888,-0.023,0.443,-2.747,-4.089,-7.202
0.889,-0.036,0.437,-2.686,-3.662,-7.385
0.890,-0.043,0.432,-3.418,-2.930,-6.897
0.884,-0.048,0.427,-2.869,-2.258,-5.737
0.884,-0.048,0.419,-1.648,-2.075,-4.395
0.887,-0.049,0.415,0.244,-3.418,-3.296
0.890,-0.054,0.418,1.465,-6.287,-2.502
0.890,-0.050,0.427,0.549,-9.827,-1.709
0.894,-0.043,0.442,-0.183,-13.489,-1.099
0.892,-0.042,0.459,0.488,-16.846,-0.305
0.889,-0.038,0.482,0.366,-18.738,0.671
0.884,-0.025,0.501,-1.221,-19.287,1.953
0.880,-0.015,0.516,-1.343,-19.165,3.418
0.873,0.001,0.529,-1.221,-17.883,4.395
0.872,0.015,0.538,-0.793,-15.991,4.456
0.871,0.010,0.540,0.244,-13.794,3.418
0.866,0.007,0.544,-1.892,-10.986,2.136
0.864,0.016,0.544,-5.310,-7.935,1.892
0.861,0.018,0.541,-4.944,-5.615,1.465
0.861,0.011,0.531,-2.380,-3.845,0.610
0.863,0.006,0.524,-1.953,-2.075,-0.061
0.864,0.008,0.516,-3.235,-0.488,0.122
0.860,0.007,0.506,-3.113,0.732,-0.061
0.862,0.002,0.499,-2.075,1.465,-0.549
0.863,-0.003,0.491,-1.709,1.953,-0.977
0.861,-0.001,0.490,-2.502,2.441,-1.099
0.863,-0.002,0.489,-2.319,2.014,-1.160
0.869,-0.011,0.489,-0.793,0.977,-1.221
0.870,-0.020,0.492,-1.160,0.671,-1.221
0.868,-0.021,0.493,-2.991,0.427,-0.977
0.863,-0.021,0.491,-3.357,0.610,-0.488
0.862,-0.017,0.484,-2.197,0.732,0.244
0.861,-0.015,0.480,-0.366,0.854,0.732
0.863,-0.011,0.477,0.305,0.916,1.038
0.861,-0.005,0.480,0.061,0.671,1.038
0.858,-0.002,0.483,0.549,0.000,0.732
0.858,-0.002,0.482,1.282,-0.305,0.610
0.864,-0.001,0.475,0.977,-0.244,0.488
0.849,0.002,0.480,-0.671,-0.854,0.366
0.857,0.005,0.485,-0.854,-1.526,0.122
0.854,-0.002,0.488,0.977,-2.075,-0.427
0.864,-0.015,0.486,1.099,-1.831,-0.732
0.857,-0.010,0.493,-1.953,-0.732,-0.366
0.853,0.001,0.497,-3.845,-0.122,0.366
0.856,-0.001,0.496,-0.610,-0.183,0.427
0.860,-0.004,0.494,1.648,-0.610,0.305

0.999,-0.015,1.280,22.034,32.532,8.545
1.100,-0.075,1.588,10.071,41.321,17.456
1.104,-0.084,1.900,-16.479,54.749,33.386
0.954,-0.086,2.215,-46.936,104.065,46.509
0.697,-0.083,2.427,-73.486,196.045,48.828
0.487,-0.095,2.390,-82.581,327.026,45.776
0.335,-0.133,2.050,-74.890,472.656,47.974
0.173,-0.044,1.548,-69.641,603.760,55.847
-0.010,0.101,1.051,-45.898,711.670,59.753
-0.164,0.188,0.484,13.550,776.611,58.472
-0.286,0.247,-0.083,70.618,810.852,61.096
-0.412,0.363,-0.599,91.125,819.458,68.298
-0.430,0.469,-1.147,87.646,797.424,70.313
-0.349,0.574,-1.665,73.608,725.525,63.782
-0.251,0.517,-2.003,44.678,608.521,42.603
-0.191,0.340,-2.123,-4.395,467.529,13.245
-0.119,0.129,-2.019,-65.308,318.970,-7.324
-0.058,-0.062,-1.782,-106.812,186.523,-13.611
0.014,-0.170,-1.503,-115.784,84.778,-7.629
0.097,-0.203,-1.259,-99.365,18.616,4.761
0.148,-0.167,-1.105,-77.026,-13.794,19.348
0.201,-0.081,-1.034,-62.012,-22.217,29.175
0.225,-0.011,-1.013,-49.194,-19.287,31.067
0.230,0.044,-1.009,-36.926,-13.611,26.367
0.257,0.064,-1.050,-28.076,-7.385,17.822
0.275,0.075,-1.127,-19.897,-6.836,8.728
0.283,0.078,-1.195,-11.658,-14.526,0.488
0.285,0.083,-1.230,-5.432,-29.663,-6.897
0.291,0.094,-1.233,-2.075,-50.781,-14.709
0.309,0.112,-1.219,1.343,-75.012,-23.010
0.322,0.127,-1.190,7.935,-99.915,-32.593
0.344,0.137,-1.153,15.869,-124.878,-43.579
0.374,0.132,-1.102,25.024,-151.184,-54.504
0.391,0.117,-1.024,32.837,-178.467,-65.735
0.430,0.091,-0.941,39.063,-204.346,-76.721
0.501,0.045,-0.852,43.579,-230.286,-85.693
0.582,-0.037,-0.762,40.955,-257.141,-91.736
0.647,-0.124,-0.664,26.367,-282.471,-92.590
0.675,-0.170,-0.543,4.761,-303.955,-86.792
0.691,-0.180,-0.421,-8.484,-321.167,-76.965
0.713,-0.179,-0.300,-8.789,-333.374,-66.345
0.745,-0.163,-0.189,-2.625,-341.248,-55.115
0.762,-0.137,-0.080,6.775,-344.788,-45.593
0.799,-0.104,0.015,15.198,-344.177,-38.635
0.827,-0.082,0.112,19.592,-339.966,-35.339
0.860,-0.071,0.209,20.996,-333.679,-34.790
0.893,-0.088,0.303,20.935,-325.806,-35.461
0.901,-0.106,0.400,15.747,-314.087,-34.790
0.937,-0.119,0.483,5.981,-298.584,-32.837
0.966,-0.146,0.557,-2.197,-280.518,-30.396
0.977,-0.172,0.622,-10.376,-260.376,-25.940
0.986,-0.183,0.684,-19.165,-237.915,-18.372
0.989,-0.172,0.729,-26.001,-212.219,-8.789
0.982,-0.145,0.764,-26.855,-184.998,-0.122
0.975,-0.107,0.780,-21.973,-156.372,7.324
0.973,-0.063,0.775,-14.954,-127.319,13.062
0.970,-0.025,0.757,-7.751,-98.572,15.869
0.958,0.012,0.731,-3.479,-71.899,16.296
0.964,0.031,0.685,-0.854,-48.828,13.916
0.961,0.032,0.632,0.549,-31.128,9.705
0.956,0.025,0.581,-1.282,-19.287,5.127
0.942,0.005,0.540,-3.601,-11.536,0.793
0.929,-0.011,0.509,-4.944,-6.714,-1.343
0.930,-0.030,0.484,-4.395,-3.784,-2.136
0.931,-0.049,0.461,-2.930,-2.258,-2.625
0.925,-0.059,0.439,-2.869,-1.465,-2.625
0.922,-0.057,0.425,-4.517,-1.038,-1.953
0.923,-0.056,0.415,-4.700,-1.221,-1.343
0.927,-0.071,0.404,-3.418,-1.648,-1.404
0.929,-0.074,0.402,-5.798,-1.343,-1.221
0.915,-0.069,0.402,-8.972,-1.160,-0.671
0.915,-0.064,0.398,-8.423,-1.038,-0.488
0.917,-0.067,0.389,-5.615,-0.854,-0.671
0.920,-0.080,0.382,-4.089,-0.671,-0.916
0.925,-0.087,0.377,-6.714,-0.793,-1.099
0.925,-0.091,0.378,-9.827,-0.977,-1.221
0.921,-0.095,0.377,-10.132,-0.610,-1.160
0.915,-0.093,0.377,-7.507,-0.244,-0.610
0.918,-0.090,0.372,-3.906,0.061,0.305
0.922,-0.087,0.370,-1.587,-0.122,1.099
0.920,-0.087,0.373,-1.648,-0.732,1.831
0.921,-0.083,0.379,-3.174,-1.404,2.075
0.920,-0.077,0.388,-4.333,-2.136,2.319
0.918,-0.074,0.396,-3.601,-2.380,2.502
0.914,-0.067,0.406,-2.625,-2.136,2.869
0.914,-0.060,0.411,-1.465,-1.953,3.235
0.914,-0.057,0.411,0.000,-1.160,3.235
0.913,-0.049,0.409,0.061,0.122,2.869
0.909,-0.046,0.401,0.244,1.160,2.502
0.915,-0.055,0.392,-0.244,2.258,1.770
0.910,-0.052,0.391,-3.967,2.930,1.343
0.911,-0.051,0.390,-6.714,2.014,1.221
0.910,-0.053,0.390,-5.371,1.282,1.038
0.910,-0.053,0.392,-3.357,0.549,1.038
0.916,-0.057,0.395,-1.770,0.122,0.793
0.918,-0.062,0.396,-1.343,0.122,0.244
0.919,-0.066,0.397,-1.892,0.366,0.000
0.914,-0.067,0.400,-1.892,0.793,-0.061
0.913,-0.065,0.399,-0.732,1.526,0.671
0.912,-0.061,0.392,1.282,2.441,1.160
0.910,-0.055,0.381,2.502,3.418,1.282
0.910,-0.052,0.374,1.709,3.479,1.160
0.910,-0.051,0.373,0.305,2.258,0.671
0.907,-0.057,0.376,-0.732,0.854,-0.244
0.908,-0.066,0.379,-1.648,0.305,-0.671
0.908,-0.068,0.383,-2.625,0.305,-0.610
0.906,-0.063,0.387,-2.502,0.244,-0.061
0.907,-0.059,0.392,-0.854,0.000,0.427
0.915,-0.062,0.395,0.977,-0.671,0.122
0.917,-0.072,0.399,0.854,-0.977,-0.366
0.922,-0.078,0.399,-1.099,-0.854,-0.183
0.917,-0.078,0.400,-2.441,-0.427,0.305
0.912,-0.075,0.402,-2.014,-0.366,1.343
0.918,-0.074,0.406,-0.427,-0.244,2.136
0.915,-0.066,0.409,-0.366,0.122,2.869
0.911,-0.051,0.412,-1.160,0.427,3.418
0.912,-0.045,0.413,0.000,1.038,3.052
0.912,-0.046,0.410,1.282,1.404,1.953
0.908,-0.051,0.407,1.709,1.831,1.038

1.008,-0.049,1.128,27.771,19.897,8.179
1.072,0.012,1.356,18.127,42.908,12.695
1.049,0.020,1.516,24.292,73.364,15.808
0.980,-0.017,1.705,39.185,124.390,13.000
0.977,-0.060,1.881,43.945,196.045,12.512
0.896,-0.187,1.939,44.617,275.330,19.287
0.712,-0.302,1.829,34.973,375.732,30.334
0.511,-0.297,1.529,13.123,481.567,48.767
0.306,-0.223,1.087,11.475,581.848,68.665
0.146,-0.139,0.521,33.081,658.386,85.632
0.036,-0.006,-0.051,54.260,701.599,98.572
-0.026,0.132,-0.582,68.420,710.815,107.361
-0.083,0.257,-1.046,78.979,680.420,110.107
-0.059,0.357,-1.418,71.350,622.498,101.013
-0.024,0.354,-1.703,45.715,539.001,81.726
-0.024,0.289,-1.850,10.742,433.228,58.594
0.001,0.184,-1.867,-27.161,319.824,37.720
0.018,0.055,-1.778,-58.411,215.454,23.071
0.068,-0.064,-1.633,-73.914,126.465,16.663
0.112,-0.124,-1.471,-75.073,56.091,19.348
0.161,-0.123,-1.314,-68.359,5.371,27.283
0.227,-0.082,-1.187,-62.622,-29.053,35.706
0.274,-0.028,-1.089,-61.340,-51.025,40.466
0.310,0.008,-1.032,-59.387,-61.951,38.757
0.339,0.018,-1.012,-53.711,-66.956,32.715
0.372,0.030,-1.006,-48.401,-69.763,26.001
0.404,0.042,-0.992,-44.189,-72.632,18.372
0.434,0.041,-0.979,-38.391,-74.829,9.705
0.472,0.055,-0.964,-30.334,-80.322,3.113
0.502,0.084,-0.930,-17.517,-90.942,-1.038
0.531,0.119,-0.893,0.000,-103.516,-6.531
0.554,0.145,-0.866,18.066,-113.953,-14.893
0.578,0.150,-0.857,30.090,-122.559,-25.757
0.588,0.158,-0.845,36.011,-130.981,-37.476
0.615,0.159,-0.818,42.603,-142.212,-49.561
0.635,0.148,-0.776,54.443,-158.569,-62.378
0.648,0.124,-0.720,64.941,-177.673,-74.097
0.684,0.076,-0.661,65.674,-196.167,-85.571
0.736,-0.003,-0.586,57.739,-215.515,-94.788
0.767,-0.090,-0.502,43.701,-235.046,-98.450
0.796,-0.160,-0.402,26.733,-252.686,-94.543
0.810,-0.225,-0.299,9.949,-265.808,-84.106
0.829,-0.247,-0.201,-9.033,-273.132,-68.420
0.849,-0.234,-0.108,-26.428,-274.902,-50.781
0.857,-0.198,-0.022,-33.081,-272.217,-35.156
0.883,-0.161,0.045,-28.076,-266.296,-23.254
0.910,-0.127,0.110,-18.494,-257.874,-16.357
0.936,-0.101,0.176,-10.437,-248.840,-14.282
0.952,-0.095,0.237,-3.052,-238.708,-15.259
0.966,-0.102,0.291,2.136,-226.807,-17.334
0.972,-0.099,0.343,2.808,-212.219,-18.616
0.981,-0.092,0.394,2.014,-195.374,-18.066
0.997,-0.092,0.431,4.089,-178.406,-16.541
1.008,-0.095,0.461,4.333,-162.170,-14.404
1.018,-0.104,0.485,-0.122,-146.301,-12.085
1.023,-0.116,0.503,-7.385,-130.615,-10.559
1.019,-0.124,0.518,-14.404,-115.295,-8.972
1.004,-0.121,0.528,-17.639,-99.243,-6.287
1.001,-0.119,0.527,-15.625,-82.336,-2.991
1.002,-0.117,0.516,-11.536,-66.345,-0.977
1.002,-0.111,0.504,-9.155,-52.246,1.282
0.998,-0.095,0.488,-7.507,-40.955,3.113
0.990,-0.084,0.463,-4.700,-31.433,3.784
0.986,-0.072,0.437,-3.540,-23.376,3.845
0.981,-0.060,0.417,-4.700,-17.273,2.930
0.977,-0.067,0.397,-4.272,-13.794,0.305
0.974,-0.085,0.379,-3.479,-11.353,-1.465
0.969,-0.101,0.364,-5.371,-9.094,-2.319
0.965,-0.108,0.354,-8.545,-7.324,-2.380
0.961,-0.116,0.345,-9.155,-5.859,-2.075
0.957,-0.125,0.334,-7.507,-4.028,-1.709
0.953,-0.124,0.324,-6.104,-2.747,-1.282
0.951,-0.125,0.309,-4.395,-1.526,-1.038
0.950,-0.130,0.292,-2.625,-0.610,-0.916
0.950,-0.130,0.276,-3.113,0.000,-0.610
0.950,-0.127,0.268,-4.272,-0.427,-0.183
0.950,-0.127,0.269,-4.028,-1.709,0.244
0.951,-0.128,0.273,-3.174,-3.784,0.366
0.950,-0.132,0.278,-3.174,-5.188,0.610
0.947,-0.125,0.284,-4.822,-5.798,1.099
0.946,-0.120,0.291,-4.639,-6.409,1.709
0.943,-0.117,0.301,-2.991,-7.202,1.892
0.946,-0.114,0.307,-2.014,-7.812,2.075
0.942,-0.109,0.317,-1.404,-7.324,2.014
0.938,-0.101,0.320,-0.793,-6.531,2.197
0.945,-0.101,0.316,-0.305,-5.920,2.136
0.944,-0.098,0.317,-1.892,-5.432,1.892
0.943,-0.097,0.323,-4.089,-5.737,1.221
0.946,-0.102,0.328,-4.395,-6.042,0.427
0.940,-0.111,0.332,-3.052,-6.165,-0.366
0.944,-0.115,0.338,-2.258,-5.798,0.000
0.951,-0.113,0.340,-1.648,-5.249,0.671
0.946,-0.117,0.344,-0.183,-4.578,1.160
0.945,-0.106,0.349,-0.977,-3.296,2.197
0.944,-0.100,0.348,-0.183,-2.136,2.747
0.948,-0.103,0.342,1.099,-1.282,2.441
0.948,-0.109,0.338,0.305,-0.671,1.831
0.945,-0.110,0.339,-1.892,-0.061,1.587
0.942,-0.108,0.339,-2.441,0.366,1.892
0.939,-0.109,0.337,-1.160,0.732,2.258
0.936,-0.105,0.334,-0.366,1.526,2.686
0.934,-0.101,0.330,-0.183,2.563,2.747
0.931,-0.098,0.322,0.183,3.906,2.258
0.929,-0.097,0.314,1.221,4.639,1.953
0.933,-0.099,0.306,2.319,4.456,1.404
0.936,-0.110,0.297,2.686,3.601,1.038
0.935,-0.111,0.294,0.732,2.808,1.221
0.935,-0.107,0.296,-1.099,1.465,1.953
0.933,-0.103,0.302,-0.732,-0.244,2.441
0.934,-0.097,0.311,-0.061,-1.099,2.808
0.938,-0.090,0.324,0.061,-1.526,2.747
0.936,-0.088,0.334,0.427,-1.892,2.075
0.937,-0.091,0.339,0.610,-1.648,1.343
0.938,-0.097,0.339,-0.183,-0.854,0.732
0.940,-0.100,0.334,-1.526,0.000,0.244
0.935,-0.111,0.332,-2.075,0.610,0.183
0.935,-0.108,0.330,-2.319,0.671,0.854
0.936,-0.106,0.332,-0.977,0.427,1.221
0.937,-0.106,0.334,0.366,0.366,1.648

1.149,0.042,1.231,-0.671,-66.711,3.906
1.106,0.045,1.578,-23.193,-76.965,2.502
1.106,0.003,1.894,-52.246,-59.570,-0.793
0.922,-0.075,2.099,-65.491,14.221,-8.728
0.718,-0.196,2.074,-64.758,137.207,-17.700
0.604,-0.284,1.847,-51.880,282.227,-19.653
0.651,-0.355,1.469,-22.705,415.710,-16.235
0.631,-0.434,1.052,12.085,512.512,-7.141
0.505,-0.446,0.678,36.133,566.223,12.451
0.374,-0.372,0.319,53.772,596.008,40.161
0.248,-0.278,-0.028,73.242,612.427,66.040
0.119,-0.185,-0.329,86.853,618.896,88.501
0.073,-0.085,-0.638,89.172,612.305,107.117
0.019,0.021,-0.923,90.332,582.886,119.568
-0.049,0.164,-1.151,87.891,541.077,123.413
-0.068,0.303,-1.366,77.148,491.577,118.347
-0.092,0.363,-1.561,67.444,425.049,105.652
-0.099,0.385,-1.674,48.157,347.778,87.036
-0.074,0.374,-1.700,16.357,269.714,63.843
-0.036,0.304,-1.641,-13.733,195.129,38.940
0.052,0.190,-1.535,-36.621,126.953,15.991
0.129,0.064,-1.399,-51.880,68.481,0.305
0.196,-0.044,-1.249,-55.237,22.644,-6.897
0.258,-0.114,-1.128,-49.438,-7.202,-6.592
0.273,-0.131,-1.054,-41.931,-21.545,0.244
0.285,-0.077,-1.036,-36.621,-24.170,11.047
0.304,0.002,-1.059,-28.076,-24.231,19.958
0.324,0.081,-1.095,-18.188,-28.503,23.315
0.351,0.158,-1.117,-13.184,-38.818,21.851
0.392,0.225,-1.119,-11.963,-54.382,15.198
0.445,0.256,-1.099,-11.475,-74.097,4.395
0.485,0.269,-1.060,-10.559,-96.375,-8.362
0.524,0.266,-1.018,-8.972,-117.004,-23.499
0.558,0.237,-0.988,-5.127,-135.315,-39.673
0.567,0.174,-0.949,-0.244,-154.236,-55.298
0.577,0.103,-0.905,1.709,-173.035,-67.993
0.564,0.049,-0.840,1.221,-192.871,-75.684
0.581,-0.002,-0.767,0.671,-212.158,-80.566
0.628,-0.054,-0.684,0.000,-232.300,-83.252
0.650,-0.100,-0.594,-1.404,-251.099,-83.496
0.674,-0.141,-0.504,-2.686,-265.869,-80.811
0.694,-0.154,-0.418,-6.104,-275.757,-75.134
0.722,-0.143,-0.330,-7.202,-281.494,-67.749
0.752,-0.139,-0.250,-3.784,-283.936,-61.462
0.786,-0.145,-0.176,-1.282,-283.508,-57.800
0.822,-0.158,-0.102,-2.686,-280.151,-54.688
0.861,-0.178,-0.029,-7.263,-275.208,-52.979
0.896,-0.199,0.040,-12.878,-269.409,-51.880
0.917,-0.229,0.114,-13.794,-263.245,-51.147
0.937,-0.259,0.179,-10.620,-255.249,-48.401
0.958,-0.278,0.238,-7.324,-245.483,-42.542
0.964,-0.283,0.296,-4.883,-233.765,-34.546
0.970,-0.278,0.343,-4.028,-219.604,-25.635
0.983,-0.257,0.385,-4.517,-203.003,-16.785
0.987,-0.234,0.422,-6.531,-186.279,-8.362
0.996,-0.207,0.452,-7.812,-169.983,-1.892
0.997,-0.177,0.483,-8.789,-154.358,2.747
0.991,-0.141,0.506,-9.949,-139.343,6.409
0.989,-0.111,0.526,-8.606,-124.695,7.874
0.987,-0.094,0.538,-4.761,-110.291,7.446
0.990,-0.088,0.543,-2.319,-96.191,6.409
0.989,-0.088,0.540,-3.723,-82.458,5.005
0.982,-0.088,0.534,-8.362,-68.665,3.418
0.975,-0.094,0.519,-11.353,-55.786,1.831
0.965,-0.099,0.503,-13.000,-44.556,1.038
0.965,-0.096,0.482,-13.306,-35.583,1.038
0.957,-0.094,0.462,-11.902,-28.442,0.427
0.951,-0.097,0.450,-9.827,-23.010,-0.610
0.956,-0.110,0.434,-7.751,-18.372,-1.465
0.956,-0.122,0.415,-6.775,-14.404,-2.686
0.946,-0.130,0.399,-8.362,-11.536,-3.296
0.943,-0.143,0.382,-9.338,-8.850,-3.418
0.947,-0.161,0.366,-10.315,-6.897,-3.601
0.942,-0.165,0.359,-12.878,-5.432,-2.930
0.936,-0.164,0.350,-13.367,-4.700,-2.075
0.935,-0.165,0.343,-10.193,-4.333,-1.465
0.937,-0.168,0.334,-7.019,-3.723,-1.160
0.940,-0.175,0.328,-6.287,-3.845,-1.099
0.939,-0.175,0.330,-8.179,-4.150,-0.977
0.938,-0.174,0.336,-8.972,-5.310,-0.916
0.934,-0.174,0.340,-6.775,-6.836,-0.549
0.930,-0.168,0.343,-4.272,-7.324,0.366
0.928,-0.164,0.344,-2.625,-6.958,1.038
0.930,-0.163,0.348,-2.502,-5.859,1.343
0.929,-0.161,0.349,-3.540,-4.272,1.526
0.929,-0.158,0.351,-4.333,-3.235,2.075
0.924,-0.152,0.350,-3.784,-2.747,2.808
0.924,-0.140,0.350,-3.235,-2.686,3.479
0.925,-0.131,0.354,-2.380,-3.479,3.418
0.926,-0.130,0.360,-1.343,-4.456,2.380
0.927,-0.138,0.363,-0.854,-5.249,1.282
0.928,-0.145,0.366,-1.709,-5.249,0.732
0.930,-0.146,0.368,-3.662,-5.127,0.671
0.927,-0.139,0.375,-5.554,-4.211,1.221
0.928,-0.135,0.380,-4.700,-3.418,1.709
0.930,-0.142,0.379,-2.441,-3.235,1.526
0.925,-0.147,0.376,-2.563,-2.319,1.404
0.925,-0.142,0.373,-4.639,-0.977,2.075
0.920,-0.136,0.368,-4.517,0.000,2.502
0.914,-0.130,0.365,-2.930,0.244,2.869
0.920,-0.124,0.361,-2.258,0.244,3.113
0.922,-0.128,0.358,-2.075,0.366,2.441
0.919,-0.131,0.358,-3.235,0.427,1.709
0.916,-0.128,0.360,-4.700,0.854,1.343
0.915,-0.127,0.358,-3.662,1.282,1.099
0.917,-0.132,0.352,-1.587,1.709,0.793
0.917,-0.133,0.345,-0.610,1.953,0.916
0.916,-0.133,0.341,-0.916,1.465,0.977
0.914,-0.135,0.341,-0.916,0.671,0.671
0.917,-0.139,0.339,-0.916,0.000,0.427
0.918,-0.138,0.343,-1.953,-0.488,0.549
0.917,-0.132,0.349,-2.502,-1.099,0.916
0.923,-0.129,0.349,-1.709,-1.587,0.916
0.905,-0.130,0.352,-1.282,-2.380,0.488
0.919,-0.130,0.358,-2.625,-2.075,0.000
0.918,-0.137,0.361,-2.991,-1.404,-0.671
0.916,-0.145,0.360,-2.258,-0.854,-1.038
0.917,-0.146,0.356,-1.282,-0.305,-0.916
0.911,-0.146,0.350,0.488,-0.061,-0.488

1.096,-0.131,1.008,8.301,-4.272,11.841
1.059,-0.133,1.221,4.944,2.930,13.611
1.004,-0.090,1.427,-4.028,33.386,19.470
0.983,-0.055,1.546,5.249,82.275,23.071
0.901,-0.104,1.621,29.541,150.330,22.949
0.886,-0.138,1.648,39.734,229.553,25.513
0.833,-0.181,1.691,34.546,303.101,35.645
0.669,-0.277,1.670,33.936,376.587,47.668
0.547,-0.326,1.523,27.466,455.566,62.683
0.422,-0.292,1.289,15.747,528.809,82.092
0.267,-0.246,1.009,18.982,594.421,102.173
0.149,-0.167,0.643,33.081,644.714,119.324
-0.161,-0.037,0.206,49.500,692.444,133.362
-0.372,0.161,-0.279,62.988,735.168,146.423
-0.474,0.302,-0.805,81.116,756.775,154.053
-0.548,0.414,-1.316,86.609,747.864,152.161
-0.624,0.545,-1.745,59.753,699.402,137.329
-0.601,0.571,-2.116,23.437,616.516,105.530
-0.609,0.486,-2.376,-7.507,491.760,67.261
-0.531,0.317,-2.420,-43.640,340.820,30.518
-0.407,0.111,-2.224,-84.229,193.481,0.366
-0.306,-0.102,-1.901,-106.567,67.139,-17.334
-0.210,-0.263,-1.595,-105.713,-22.034,-20.142
-0.098,-0.332,-1.380,-100.037,-74.280,-9.460
-0.028,-0.308,-1.240,-95.642,-98.877,5.310
0.013,-0.246,-1.154,-85.266,-106.934,19.043
0.050,-0.189,-1.119,-68.970,-105.469,26.001
0.100,-0.132,-1.117,-53.162,-99.548,26.550
0.148,-0.084,-1.134,-39.124,-95.642,23.010
0.197,-0.039,-1.144,-26.794,-96.619,17.395
0.242,0.007,-1.143,-14.709,-102.783,10.254
0.289,0.047,-1.144,-4.395,-111.511,1.709
0.339,0.069,-1.144,5.737,-123.108,-8.789
0.431,0.057,-1.126,21.667,-140.198,-19.897
0.479,0.025,-1.079,41.565,-163.391,-30.518
0.420,0.003,-1.013,54.749,-190.125,-36.133
0.397,0.059,-0.940,52.917,-214.905,-36.194
0.464,0.140,-0.872,54.077,-237.915,-39.124
0.538,0.151,-0.788,65.186,-262.573,-52.979
0.561,0.082,-0.688,71.899,-288.757,-71.472
0.580,0.009,-0.582,58.411,-311.401,-83.496
0.599,-0.036,-0.482,32.776,-327.271,-86.365
0.626,-0.053,-0.376,10.925,-338.989,-82.153
0.650,-0.041,-0.267,-0.427,-347.778,-73.792
0.684,-0.011,-0.161,-3.540,-353.271,-66.467
0.715,0.000,-0.057,-1.038,-354.126,-63.110
0.766,-0.033,0.023,2.808,-348.877,-64.148
0.831,-0.101,0.089,-2.014,-340.332,-65.002
0.862,-0.153,0.165,-23.437,-330.383,-61.035
0.881,-0.169,0.240,-50.781,-318.481,-53.650
0.897,-0.171,0.309,-67.200,-305.359,-45.471
0.915,-0.181,0.369,-66.284,-293.274,-38.635
0.923,-0.208,0.430,-56.274,-280.945,-31.860
0.928,-0.233,0.488,-49.622,-267.090,-23.987
0.943,-0.221,0.549,-49.683,-249.878,-16.174
0.951,-0.184,0.608,-47.363,-229.370,-8.362
0.946,-0.139,0.653,-36.865,-208.130,-2.319
0.939,-0.102,0.683,-22.522,-185.242,1.465
0.941,-0.070,0.697,-12.268,-161.682,3.601
0.952,-0.061,0.701,-7.751,-137.878,2.808
0.953,-0.072,0.701,-10.864,-114.929,-0.122
0.945,-0.083,0.700,-20.264,-93.506,-3.113
0.935,-0.090,0.692,-26.306,-75.073,-5.493
0.931,-0.104,0.676,-22.095,-59.814,-6.470
0.926,-0.121,0.652,-12.085,-47.791,-5.676
0.930,-0.133,0.624,-3.723,-37.720,-3.723
0.927,-0.131,0.599,-0.427,-28.442,-2.014
0.926,-0.126,0.571,0.061,-20.142,-1.282
0.918,-0.119,0.545,0.366,-13.367,-1.282
0.912,-0.112,0.526,0.549,-7.996,-1.526
0.917,-0.121,0.505,2.319,-4.211,-2.625
0.919,-0.141,0.489,2.686,-2.014,-3.906
0.917,-0.152,0.473,-0.549,-1.099,-4.395
0.912,-0.157,0.459,-3.479,-1.160,-4.028
0.904,-0.162,0.445,-3.174,-1.648,-2.991
0.897,-0.167,0.429,-1.709,-2.686,-1.770
0.893,-0.164,0.415,0.366,-3.662,-0.732
0.889,-0.158,0.402,2.502,-4.700,0.854
0.888,-0.154,0.386,4.028,-5.920,2.563
0.901,-0.156,0.374,3.296,-6.409,3.174
0.894,-0.143,0.385,-2.991,-4.883,2.258
0.885,-0.128,0.395,-8.911,-4.883,1.770
0.884,-0.129,0.402,-6.592,-6.592,1.282
0.888,-0.140,0.404,-1.953,-8.545,1.465
0.887,-0.142,0.408,-1.343,-10.315,2.258
0.888,-0.134,0.418,-3.113,-11.536,2.991
0.884,-0.130,0.428,-4.333,-12.573,3.479
0.879,-0.128,0.437,-4.028,-13.306,3.784
0.878,-0.118,0.444,-4.578,-13.672,4.272
0.880,-0.116,0.450,-4.639,-13.611,4.456
0.878,-0.107,0.463,-6.653,-12.756,4.333
0.875,-0.098,0.472,-8.545,-11.963,3.723
0.875,-0.100,0.477,-7.629,-10.925,2.686
0.877,-0.102,0.479,-6.287,-9.766,1.587
0.876,-0.109,0.481,-5.493,-7.446,0.366
0.874,-0.110,0.481,-6.836,-4.395,-0.244
0.875,-0.111,0.478,-7.385,-2.197,-0.732
0.873,-0.118,0.474,-5.737,-0.671,-1.099
0.880,-0.128,0.465,-4.700,0.671,-1.038
0.882,-0.136,0.460,-5.066,1.221,-1.038
0.882,-0.142,0.458,-6.836,1.404,-0.732
0.880,-0.143,0.457,-7.385,0.916,-0.305
0.875,-0.138,0.456,-6.226,0.488,0.610
0.868,-0.130,0.453,-3.113,-0.183,1.831
0.873,-0.123,0.453,-0.793,-0.549,2.686
0.874,-0.119,0.454,0.610,-0.854,2.502
0.871,-0.119,0.456,0.610,-1.160,1.831
0.872,-0.117,0.453,-0.061,-1.160,1.282
0.869,-0.120,0.450,-0.183,-0.977,0.732
0.868,-0.118,0.448,-0.488,-0.671,0.488
0.868,-0.117,0.443,-0.427,-0.427,0.793
0.865,-0.115,0.439,0.061,-0.305,0.916
0.865,-0.112,0.439,-0.061,-0.732,0.977
0.873,-0.112,0.439,0.061,-1.526,0.977
0.869,-0.115,0.443,0.183,-3.113,0.610
0.867,-0.115,0.452,-0.793,-4.822,0.732
0.865,-0.111,0.463,-1.709,-6.165,1.282
0.864,-0.111,0.471,-1.099,-7.690,1.587
0.864,-0.111,0.477,-0.183,-9.033,1.770

0.974,-0.023,1.394,21.606,-0.122,13.916
0.942,0.045,1.821,13.855,17.761,18.738
0.897,0.096,2.324,14.282,70.129,17.456
0.762,-0.073,2.663,38.879,174.438,8.057
0.626,-0.264,2.706,42.908,319.641,5.127
0.328,-0.316,2.413,15.137,482.727,18.921
0.020,-0.263,1.832,12.146,644.836,34.668
-0.183,-0.127,1.175,55.847,781.067,53.162
-0.277,-0.010,0.471,120.850,862.366,77.515
-0.320,0.131,-0.141,162.720,892.212,97.839
-0.393,0.252,-0.655,171.936,891.418,109.314
-0.403,0.356,-1.150,158.447,856.934,114.136
-0.388,0.469,-1.628,133.484,786.865,105.774
-0.322,0.439,-2.044,100.464,674.194,83.618
-0.278,0.325,-2.215,51.147,525.024,59.265
-0.203,0.157,-2.173,-8.728,369.629,37.903
-0.147,-0.035,-1.975,-63.477,228.699,24.902
-0.094,-0.197,-1.721,-93.750,112.122,24.536
-0.015,-0.256,-1.473,-98.816,27.771,36.682
0.022,-0.196,-1.297,-93.445,-20.447,50.842
0.037,-0.102,-1.184,-88.867,-45.471,58.716
0.083,-0.041,-1.123,-78.064,-56.580,56.580
0.141,-0.043,-1.099,-66.101,-59.082,45.227
0.187,-0.069,-1.090,-58.472,-57.983,31.860
0.222,-0.090,-1.091,-51.636,-56.274,21.545
0.262,-0.094,-1.094,-43.152,-56.274,15.259
0.290,-0.074,-1.076,-32.715,-59.570,11.719
0.318,-0.041,-1.065,-20.325,-66.223,9.399
0.351,0.008,-1.057,-6.470,-77.148,7.141
0.386,0.050,-1.049,7.019,-92.590,3.967
0.429,0.085,-1.033,18.677,-110.901,-0.916
0.464,0.112,-1.011,28.137,-130.493,-6.958
0.480,0.139,-0.983,36.011,-150.391,-14.648
0.487,0.176,-0.941,43.213,-169.617,-24.170
0.510,0.203,-0.884,52.551,-189.148,-37.048
0.547,0.210,-0.811,62.927,-209.961,-53.650
0.593,0.172,-0.735,68.665,-230.652,-72.327
0.652,0.064,-0.667,63.599,-249.146,-89.600
0.678,-0.038,-0.587,39.795,-265.625,-99.609
0.698,-0.102,-0.494,8.789,-281.128,-99.487
0.708,-0.132,-0.396,-9.460,-294.861,-92.285
0.728,-0.140,-0.303,-13.062,-305.298,-81.665
0.741,-0.131,-0.215,-8.728,-311.890,-71.411
0.764,-0.122,-0.136,-2.625,-312.988,-63.965
0.809,-0.130,-0.068,1.038,-310.547,-59.814
0.852,-0.155,-0.002,0.122,-306.396,-58.350
0.880,-0.181,0.068,-7.629,-300.171,-57.739
0.918,-0.225,0.129,-21.790,-291.443,-56.396
0.946,-0.254,0.198,-40.222,-282.471,-52.551
0.958,-0.264,0.267,-53.711,-274.292,-45.349
0.960,-0.282,0.329,-55.054,-266.174,-36.316
0.961,-0.288,0.382,-50.842,-256.653,-25.513
0.959,-0.277,0.446,-48.645,-245.422,-13.733
0.961,-0.240,0.501,-48.401,-231.873,-3.479
0.958,-0.206,0.549,-46.082,-217.102,2.991
0.952,-0.182,0.596,-40.955,-200.500,6.958
0.950,-0.158,0.643,-38.391,-180.847,8.972
0.956,-0.130,0.680,-37.598,-159.485,9.460
0.948,-0.114,0.710,-34.058,-136.780,7.996
0.931,-0.098,0.726,-29.968,-113.342,6.348
0.926,-0.080,0.726,-25.146,-89.478,4.944
0.920,-0.072,0.708,-18.921,-66.040,3.418
0.919,-0.080,0.670,-12.512,-44.128,1.770
0.920,-0.093,0.628,-7.385,-25.024,-0.488
0.918,-0.111,0.580,-3.906,-10.254,-1.953
0.917,-0.130,0.533,-1.831,-1.221,-3.052
0.922,-0.141,0.495,-1.526,4.150,-3.174
0.921,-0.146,0.465,-1.953,7.080,-3.113
0.917,-0.149,0.442,-1.770,8.423,-3.357
0.911,-0.150,0.427,-1.465,9.094,-3.052
0.913,-0.156,0.411,-0.427,9.033,-2.869
0.910,-0.164,0.394,1.099,9.216,-2.747
0.907,-0.165,0.384,0.854,9.705,-2.197
0.911,-0.161,0.376,-0.244,9.888,-1.587
0.905,-0.162,0.365,0.610,9.277,-1.282
0.901,-0.165,0.355,2.441,7.996,-1.099
0.905,-0.168,0.345,4.089,6.042,-0.549
0.906,-0.168,0.336,4.883,2.808,0.366
0.910,-0.172,0.332,4.517,-0.854,1.160
0.911,-0.173,0.336,2.747,-4.639,1.953
0.915,-0.176,0.340,0.000,-9.033,2.319
0.909,-0.168,0.360,-3.845,-12.878,2.441
0.901,-0.155,0.381,-6.653,-15.625,3.052
0.899,-0.148,0.396,-4.761,-18.188,3.723
0.899,-0.143,0.407,-1.892,-19.958,4.211
0.893,-0.135,0.417,-1.343,-20.508,4.639
0.893,-0.127,0.423,-2.136,-20.325,4.333
0.892,-0.121,0.429,-3.906,-19.653,3.418
0.894,-0.124,0.435,-5.981,-19.043,2.502
0.892,-0.130,0.437,-6.348,-19.165,1.099
0.892,-0.139,0.435,-5.249,-19.531,0.305
0.890,-0.143,0.438,-4.272,-19.592,0.244
0.887,-0.147,0.443,-2.869,-19.531,0.793
0.891,-0.153,0.444,-1.831,-19.531,1.587
0.894,-0.157,0.453,-2.197,-18.494,2.136
0.887,-0.150,0.466,-5.554,-15.991,2.502
0.882,-0.141,0.476,-8.118,-12.939,2.869
0.880,-0.141,0.477,-7.019,-9.521,2.808
0.882,-0.146,0.475,-5.371,-5.127,2.441
0.879,-0.141,0.474,-6.836,-0.793,2.075
0.879,-0.135,0.468,-8.057,2.869,2.014
0.875,-0.135,0.456,-5.676,6.226,1.709
0.876,-0.140,0.443,-1.587,8.240,1.770
0.877,-0.138,0.428,1.160,9.216,2.563
0.878,-0.135,0.416,1.648,8.850,3.479
0.880,-0.133,0.407,1.526,7.874,3.479
0.880,-0.118,0.403,-0.671,6.592,3.052
0.883,-0.117,0.401,-2.075,3.662,1.648
0.881,-0.131,0.406,-2.014,0.061,0.000
0.880,-0.134,0.421,-3.357,-2.319,-0.488
0.880,-0.135,0.435,-3.784,-3.906,-0.061
0.882,-0.141,0.446,-1.343,-4.822,0.000
0.880,-0.146,0.453,0.183,-5.066,0.427
0.878,-0.141,0.457,0.305,-4.700,1.221
0.880,-0.137,0.456,0.793,-4.211,1.953
0.880,-0.136,0.455,0.732,-3.540,1.831
0.874,-0.129,0.454,-0.793,-2.747,1.770
0.877,-0.129,0.451,-1.099,-2.808,1.343
0.879,-0.141,0.448,-1.099,-3.052,0.549

0.975,-0.093,1.216,29.236,25.024,12.085
0.981,-0.104,1.484,32.654,54.016,17.883
0.951,-0.093,1.645,38.635,100.891,18.921
0.838,-0.111,1.793,53.894,179.138,19.104
0.768,-0.180,1.826,71.594,275.635,22.461
0.693,-0.266,1.729,79.102,369.568,33.752
0.560,-0.271,1.566,77.209,461.792,48.462
0.503,-0.286,1.376,81.238,535.034,65.857
0.462,-0.316,1.142,90.942,587.158,86.853
0.317,-0.298,0.842,86.975,629.578,110.352
0.176,-0.182,0.463,71.411,669.739,130.127
0.020,-0.014,0.042,66.406,701.538,144.470
-0.150,0.143,-0.381,78.308,719.421,152.527
-0.263,0.293,-0.824,87.524,724.609,153.748
-0.330,0.406,-1.273,88.196,706.909,148.743
-0.406,0.514,-1.672,76.355,652.588,134.644
-0.405,0.562,-1.972,49.011,562.683,109.863
-0.392,0.501,-2.136,9.460,445.496,77.148
-0.367,0.363,-2.135,-36.804,312.622,44.067
-0.334,0.172,-1.986,-76.538,183.594,18.555
-0.244,-0.008,-1.768,-96.741,74.951,4.028
-0.150,-0.109,-1.553,-98.206,-4.700,2.625
-0.058,-0.125,-1.374,-91.492,-56.763,8.240
0.017,-0.112,-1.252,-83.191,-87.891,13.794
0.080,-0.094,-1.173,-77.515,-104.309,15.503
0.123,-0.088,-1.120,-73.242,-110.107,13.367
0.172,-0.084,-1.082,-67.078,-110.291,8.606
0.237,-0.077,-1.051,-58.167,-108.948,3.845
0.293,-0.073,-1.025,-45.349,-107.788,-0.183
0.337,-0.047,-1.000,-32.715,-106.689,-3.540
0.405,-0.004,-0.985,-19.165,-106.384,-8.545
0.465,0.018,-0.987,-0.488,-110.413,-15.137
0.502,0.027,-0.995,16.479,-119.080,-21.301
0.528,0.042,-0.998,24.170,-130.920,-25.818
0.540,0.061,-0.987,26.489,-146.790,-29.907
0.540,0.080,-0.953,28.198,-165.833,-36.011
0.540,0.084,-0.902,33.264,-186.279,-45.593
0.551,0.080,-0.840,37.720,-205.933,-56.763
0.591,0.061,-0.767,39.246,-225.159,-68.726
0.632,0.029,-0.678,37.964,-245.422,-79.529
0.654,-0.007,-0.589,33.630,-263.550,-85.815
0.644,-0.027,-0.498,25.085,-278.748,-87.463
0.668,-0.051,-0.420,15.320,-289.124,-87.036
0.711,-0.083,-0.343,6.104,-296.204,-84.778
0.731,-0.106,-0.266,-5.005,-301.208,-79.773
0.739,-0.111,-0.190,-18.311,-302.917,-72.998
0.766,-0.120,-0.119,-28.687,-300.110,-67.322
0.811,-0.152,-0.060,-33.569,-295.715,-64.575
0.854,-0.187,-0.002,-37.537,-291.016,-65.125
0.913,-0.242,0.049,-41.809,-286.621,-67.749
0.938,-0.294,0.113,-46.631,-282.227,-68.481
0.950,-0.341,0.181,-49.561,-278.259,-64.392
0.971,-0.383,0.245,-49.622,-274.719,-55.115
0.978,-0.405,0.309,-52.368,-271.301,-40.405
0.963,-0.386,0.391,-59.387,-264.832,-21.545
0.950,-0.330,0.470,-65.063,-254.700,-3.662
0.932,-0.262,0.534,-62.378,-241.394,9.521
0.920,-0.200,0.593,-53.467,-224.487,18.188
0.915,-0.148,0.643,-43.884,-204.285,22.034
0.915,-0.112,0.683,-35.339,-181.519,22.156
0.922,-0.090,0.712,-29.358,-156.189,19.287
0.917,-0.072,0.733,-27.344,-127.258,13.916
0.906,-0.057,0.737,-25.818,-97.351,7.812
0.905,-0.065,0.717,-19.287,-69.641,2.380
0.914,-0.095,0.678,-12.024,-44.678,-1.282
0.918,-0.121,0.631,-9.155,-23.682,-3.723
0.919,-0.141,0.582,-8.240,-7.507,-4.944
0.923,-0.155,0.531,-5.920,2.380,-5.371
0.919,-0.167,0.493,-2.991,9.216,-5.432
0.913,-0.171,0.459,-0.793,13.184,-4.761
0.910,-0.176,0.431,1.892,14.465,-4.150
0.912,-0.184,0.406,5.432,14.038,-3.601
0.916,-0.192,0.387,7.019,13.000,-3.479
0.910,-0.196,0.380,5.188,12.695,-3.418
0.913,-0.202,0.373,2.380,12.329,-3.235
0.918,-0.217,0.362,0.977,11.963,-3.052
0.910,-0.220,0.357,-0.793,12.207,-2.136
0.903,-0.210,0.353,-2.563,12.390,-0.916
0.902,-0.201,0.344,-0.610,12.085,0.732
0.904,-0.195,0.331,4.089,10.742,2.197
0.907,-0.193,0.322,7.324,8.545,3.418
0.916,-0.195,0.317,7.263,5.615,3.906
0.914,-0.186,0.323,3.113,3.174,3.601
0.912,-0.177,0.334,-1.282,0.732,2.869
0.909,-0.178,0.345,-2.380,-2.136,2.197
0.912,-0.184,0.353,-2.258,-5.249,2.136
0.912,-0.181,0.364,-3.479,-7.568,2.014
0.910,-0.170,0.378,-6.653,-9.094,2.197
0.904,-0.157,0.390,-7.385,-10.498,2.075
0.904,-0.156,0.395,-5.371,-10.925,1.892
0.905,-0.156,0.400,-3.601,-10.742,1.221
0.903,-0.157,0.401,-3.174,-10.376,0.488
0.902,-0.166,0.401,-2.380,-10.010,-0.244
0.904,-0.180,0.398,-2.136,-9.399,-0.732
0.907,-0.191,0.398,-3.540,-8.484,-0.916
0.900,-0.187,0.401,-5.920,-7.996,-0.183
0.900,-0.187,0.401,-5.737,-8.301,0.610
0.903,-0.192,0.401,-3.784,-7.751,1.221
0.899,-0.185,0.405,-5.554,-6.470,1.892
0.899,-0.178,0.408,-7.324,-5.188,2.136
0.897,-0.181,0.408,-6.165,-3.540,1.587
0.903,-0.192,0.406,-4.211,-1.953,1.160
0.903,-0.193,0.407,-4.700,-0.427,1.221
0.899,-0.190,0.408,-4.700,0.488,1.709
0.901,-0.192,0.407,-2.686,1.526,2.136
0.897,-0.183,0.408,-1.404,2.808,2.747
0.896,-0.172,0.407,-0.610,3.845,3.540
0.898,-0.173,0.405,0.183,3.967,3.967
0.901,-0.173,0.407,-0.610,4.028,3.723
0.904,-0.176,0.410,-2.625,3.418,3.235
0.900,-0.182,0.422,-4.089,2.991,2.869
0.911,-0.185,0.447,-4.089,1.465,2.747
0.909,-0.185,0.497,-3.235,-0.305,3.662
0.924,-0.182,0.566,-1.953,-2.258,5.310
0.944,-0.181,0.655,-0.061,-3.662,7.935
0.946,-0.180,0.772,0.854,-0.244,10.132
0.973,-0.167,0.907,-1.343,11.475,11.963
0.970,-0.175,1.022,1.831,36.499,13.855
0.967,-0.170,1.102,9.521,75.439,16.724

0.884,-0.138,1.143,36.987,179.687,24.414
0.837,-0.151,1.132,61.951,240.234,28.503
0.831,-0.192,1.117,88.135,298.462,36.743
0.828,-0.192,1.024,103.149,354.614,47.119
0.731,-0.207,0.889,109.558,407.654,54.871
0.586,-0.169,0.722,110.107,454.041,66.467
0.579,-0.105,0.493,111.877,490.234,81.177
0.525,-0.062,0.238,114.319,516.296,92.407
0.485,-0.012,0.027,106.201,531.250,97.961
0.465,0.013,-0.168,91.003,532.837,103.088
0.439,0.020,-0.347,76.050,522.766,106.750
0.391,0.055,-0.511,57.068,505.493,111.023
0.373,0.095,-0.671,43.213,482.788,114.563
0.382,0.115,-0.828,27.832,453.247,111.816
0.338,0.116,-0.941,4.578,419.067,103.027
0.332,0.125,-1.026,-19.226,382.874,93.262
0.270,0.119,-1.103,-33.264,344.910,83.496
0.157,0.121,-1.185,-38.208,309.937,75.500
0.121,0.129,-1.283,-40.405,277.527,68.604
0.072,0.101,-1.370,-37.964,243.958,59.692
0.066,0.061,-1.414,-39.856,207.825,50.720
0.109,0.014,-1.407,-48.828,166.931,43.396
0.121,-0.045,-1.357,-51.575,126.038,37.354
0.101,-0.088,-1.306,-50.476,91.797,35.889
0.098,-0.094,-1.289,-46.753,66.772,38.757
0.102,-0.076,-1.296,-40.405,46.814,41.016
0.115,-0.026,-1.300,-35.645,27.771,40.771
0.153,-0.000,-1.289,-31.616,7.568,36.804
0.155,0.014,-1.261,-31.128,-12.207,30.273
0.149,0.027,-1.231,-31.555,-30.579,23.437
0.144,0.028,-1.217,-27.283,-45.532,16.541
0.152,0.036,-1.199,-23.132,-57.678,9.216
0.192,0.041,-1.179,-18.555,-69.641,1.709
0.225,0.034,-1.144,-11.963,-82.703,-5.676
0.246,0.030,-1.102,-6.714,-96.252,-13.306
0.284,0.016,-1.074,-3.235,-107.300,-20.081
0.321,0.002,-1.051,-2.258,-117.554,-24.292
0.359,-0.000,-1.035,-4.395,-129.150,-25.269
0.381,0.007,-1.008,-6.348,-143.005,-25.024
0.422,0.018,-0.970,-4.700,-157.593,-26.001
0.469,0.024,-0.933,-1.343,-172.607,-28.259
0.502,0.047,-0.877,2.747,-187.927,-32.410
0.531,0.062,-0.811,11.902,-201.904,-39.490
0.553,0.056,-0.749,23.376,-212.280,-48.828
0.573,0.036,-0.688,29.236,-218.262,-58.289
0.608,0.005,-0.635,29.236,-221.008,-66.589
0.643,-0.025,-0.585,25.940,-221.741,-72.327
0.698,-0.061,-0.542,23.437,-222.168,-75.317
0.737,-0.088,-0.497,21.912,-224.060,-75.684
0.756,-0.098,-0.446,21.606,-226.257,-74.036
0.768,-0.111,-0.404,24.902,-225.647,-71.045
0.783,-0.114,-0.358,26.611,-222.778,-66.772
0.792,-0.090,-0.318,22.949,-217.346,-61.523
0.823,-0.071,-0.278,18.616,-211.182,-55.969
0.849,-0.047,-0.237,16.235,-206.116,-52.063
0.873,-0.036,-0.194,12.878,-200.928,-52.429
0.884,-0.041,-0.155,8.972,-194.702,-55.969
0.902,-0.079,-0.128,5.920,-188.110,-60.486
0.921,-0.119,-0.101,2.563,-182.251,-63.538
0.943,-0.157,-0.076,0.061,-177.917,-65.369
0.960,-0.211,-0.061,0.305,-174.316,-66.833
0.971,-0.264,-0.036,-2.563,-169.495,-65.979
0.990,-0.291,-0.002,-12.329,-164.551,-61.157
1.012,-0.311,0.037,-21.606,-160.461,-54.016
1.019,-0.329,0.075,-24.902,-158.325,-46.265
1.012,-0.338,0.112,-25.574,-156.067,-37.781
1.016,-0.338,0.141,-26.245,-152.161,-28.625
1.017,-0.331,0.167,-27.832,-145.935,-20.203
1.013,-0.313,0.193,-31.677,-137.512,-12.939
0.999,-0.284,0.219,-35.156,-128.418,-6.653
0.985,-0.254,0.239,-35.095,-119.385,-2.197
0.976,-0.225,0.252,-31.433,-110.229,0.122
0.973,-0.211,0.259,-25.085,-101.196,1.404
0.976,-0.211,0.259,-18.616,-92.834,0.793
0.976,-0.220,0.263,-15.381,-85.571,-0.854
0.946,-0.239,0.269,-16.052,-79.712,-2.563
0.951,-0.237,0.273,-23.071,-74.219,-4.333
0.965,-0.219,0.277,-33.569,-69.092,-3.723
0.967,-0.211,0.284,-36.621,-64.148,-4.578
0.971,-0.215,0.292,-35.522,-60.303,-7.385
1.012,-0.217,0.288,-34.180,-56.763,-10.071
1.034,-0.231,0.283,-30.945,-52.429,-11.047
0.992,-0.274,0.293,-23.071,-47.729,-12.573
0.945,-0.291,0.306,-20.325,-44.128,-12.573
0.942,-0.286,0.313,-22.888,-41.016,-8.362
0.947,-0.278,0.321,-23.193,-35.889,-3.418
0.949,-0.267,0.331,-23.499,-30.090,-0.244
0.946,-0.245,0.342,-24.719,-23.682,2.747
0.937,-0.223,0.348,-23.315,-17.456,4.822
0.937,-0.212,0.342,-17.517,-12.085,5.493
0.938,-0.209,0.335,-11.169,-7.507,5.249
0.939,-0.208,0.325,-6.104,-4.272,4.761
0.939,-0.209,0.318,-2.991,-2.747,4.089
0.941,-0.212,0.310,-0.671,-2.563,3.174
0.940,-0.220,0.299,0.488,-3.113,2.625
0.940,-0.222,0.294,-0.061,-3.967,2.625
0.938,-0.221,0.290,-1.404,-5.310,3.113
0.935,-0.225,0.288,-1.587,-6.836,3.296
0.934,-0.226,0.283,-1.770,-8.118,3.540
0.930,-0.224,0.282,-2.502,-8.789,3.906
0.926,-0.215,0.280,-3.357,-9.033,4.272
0.927,-0.212,0.281,-3.418,-8.545,4.333
0.932,-0.215,0.280,-2.991,-7.996,3.418
0.934,-0.220,0.281,-3.540,-6.714,2.197
0.931,-0.221,0.283,-5.310,-5.493,1.343
0.928,-0.221,0.283,-6.897,-5.249,0.793
0.928,-0.224,0.282,-6.714,-5.615,0.610
0.928,-0.225,0.282,-6.226,-6.165,1.221
0.929,-0.223,0.285,-5.798,-7.141,1.709
0.928,-0.221,0.291,-5.981,-8.362,2.075
0.925,-0.216,0.299,-6.470,-9.460,2.258
0.922,-0.208,0.307,-5.981,-10.315,2.502
0.919,-0.203,0.311,-3.723,-11.169,2.563
0.923,-0.209,0.319,-1.953,-11.536,2.075
0.926,-0.207,0.328,-3.479,-10.559,1.587
0.925,-0.205,0.334,-6.836,-9.399,1.099
0.921,-0.209,0.339,-9.094,-7.141,0.061
0.920,-0.207,0.342,-11.169,-4.456,-0.244
0.920,-0.207,0.346,-12.024,-1.892,-0.549

1.012,-0.218,1.130,11.292,3.479,7.324
1.061,-0.206,1.489,16.968,15.198,16.479
1.063,-0.224,1.927,28.076,57.190,22.583
0.956,-0.319,2.289,41.016,138.000,30.701
0.734,-0.384,2.479,43.091,254.944,45.532
0.493,-0.388,2.409,29.846,394.897,69.763
0.322,-0.304,2.046,32.288,537.048,94.421
0.194,-0.278,1.568,50.964,657.898,107.849
-0.082,-0.221,1.026,63.599,753.113,115.601
-0.338,-0.081,0.359,68.848,824.036,126.831
-0.500,0.107,-0.290,85.449,872.070,138.672
-0.656,0.286,-0.915,111.023,898.010,138.123
-0.758,0.375,-1.442,135.559,887.451,125.305
-0.781,0.436,-1.971,150.024,833.252,112.671
-0.792,0.545,-2.457,138.977,722.473,100.220
-0.792,0.503,-2.746,101.929,553.284,79.590
-0.740,0.370,-2.707,39.124,352.966,57.983
-0.579,0.169,-2.428,-40.649,163.452,38.330
-0.506,-0.022,-2.022,-103.760,10.437,24.048
-0.369,-0.127,-1.613,-126.648,-97.839,21.851
-0.222,-0.160,-1.291,-124.939,-161.011,24.170
-0.119,-0.146,-1.101,-125.427,-189.514,26.978
-0.031,-0.121,-1.011,-129.761,-199.768,29.602
0.050,-0.116,-0.968,-123.535,-200.317,29.480
0.144,-0.144,-0.945,-110.596,-190.796,24.658
0.244,-0.171,-0.923,-98.938,-176.147,18.188
0.347,-0.175,-0.894,-85.815,-159.912,12.207
0.437,-0.159,-0.863,-64.758,-144.592,6.958
0.528,-0.126,-0.848,-37.415,-131.104,2.869
0.601,-0.095,-0.858,-6.470,-120.850,-0.366
0.636,-0.073,-0.884,25.146,-115.479,-3.967
0.652,-0.057,-0.909,53.040,-117.737,-9.583
0.660,-0.040,-0.930,74.463,-127.808,-15.869
0.652,-0.027,-0.929,88.257,-148.132,-21.606
0.629,-0.004,-0.884,94.666,-177.002,-26.978
0.646,0.019,-0.802,91.858,-207.642,-33.752
0.674,0.023,-0.701,81.482,-236.633,-42.114
0.673,0.021,-0.588,67.383,-262.329,-49.988
0.661,0.029,-0.484,56.458,-282.410,-54.932
0.667,0.040,-0.392,53.284,-295.044,-58.105
0.696,0.029,-0.314,55.054,-301.941,-60.852
0.730,0.006,-0.242,51.453,-303.772,-62.988
0.750,-0.003,-0.168,37.598,-301.208,-63.599
0.768,-0.003,-0.098,19.653,-293.335,-62.378
0.806,-0.013,-0.038,4.395,-282.104,-61.218
0.862,-0.055,0.008,-7.263,-269.592,-62.073
0.908,-0.118,0.051,-20.874,-257.996,-64.209
0.945,-0.190,0.089,-34.546,-248.474,-66.040
0.963,-0.247,0.131,-44.128,-239.868,-65.002
0.968,-0.283,0.176,-45.227,-232.971,-59.204
0.975,-0.303,0.217,-37.598,-228.455,-50.232
0.994,-0.326,0.252,-27.649,-223.572,-39.673
0.996,-0.314,0.296,-25.269,-216.858,-26.550
0.974,-0.257,0.346,-27.893,-208.008,-12.939
0.959,-0.191,0.395,-27.649,-197.388,-2.502
0.949,-0.144,0.443,-23.376,-184.570,2.441
0.950,-0.116,0.483,-18.494,-170.532,3.174
0.958,-0.107,0.512,-15.503,-156.128,0.977
0.965,-0.121,0.537,-13.306,-141.113,-2.319
0.955,-0.139,0.548,-12.817,-126.343,-6.165
0.955,-0.163,0.551,-15.503,-110.962,-8.850
0.945,-0.174,0.549,-21.790,-94.666,-9.766
0.936,-0.172,0.543,-27.161,-79.285,-8.789
0.933,-0.172,0.531,-25.208,-65.857,-7.690
0.935,-0.184,0.512,-18.066,-54.382,-6.653
0.939,-0.194,0.498,-12.817,-44.861,-5.920
0.931,-0.194,0.485,-12.695,-36.011,-5.249
0.922,-0.190,0.473,-13.184,-28.992,-4.639
0.923,-0.197,0.457,-10.864,-23.682,-4.822
0.921,-0.202,0.444,-7.874,-19.836,-4.944
0.917,-0.202,0.434,-6.714,-17.029,-4.883
0.912,-0.203,0.426,-6.104,-14.587,-4.517
0.913,-0.211,0.417,-4.944,-13.184,-3.784
0.911,-0.216,0.407,-3.906,-12.329,-2.991
0.907,-0.217,0.401,-4.272,-11.475,-1.770
0.899,-0.211,0.396,-4.883,-10.986,-0.610
0.894,-0.203,0.391,-3.540,-11.230,0.916
0.892,-0.200,0.385,-1.587,-11.597,2.625
0.891,-0.191,0.380,-1.282,-12.024,3.967
0.889,-0.179,0.380,-2.502,-13.000,4.944
0.888,-0.170,0.381,-3.845,-14.465,4.944
0.888,-0.164,0.390,-5.493,-16.235,4.395
0.888,-0.162,0.398,-6.348,-18.250,3.418
0.891,-0.168,0.406,-7.080,-20.386,2.380
0.888,-0.168,0.422,-9.399,-21.240,1.221
0.882,-0.164,0.439,-12.512,-21.667,0.732
0.879,-0.162,0.448,-11.719,-21.790,0.549
0.881,-0.169,0.458,-8.362,-21.423,0.610
0.880,-0.172,0.463,-5.676,-21.057,0.854
0.881,-0.171,0.466,-4.944,-20.386,1.648
0.883,-0.168,0.469,-5.554,-19.531,2.258
0.876,-0.163,0.477,-7.751,-17.944,2.319
0.871,-0.161,0.481,-8.850,-15.991,2.075
0.871,-0.166,0.480,-8.240,-14.343,1.709
0.871,-0.165,0.481,-8.057,-12.329,1.221
0.868,-0.165,0.482,-8.484,-9.949,1.038
0.865,-0.168,0.478,-7.324,-7.690,0.732
0.873,-0.176,0.474,-6.104,-5.005,0.488
0.871,-0.169,0.477,-9.094,-1.648,0.488
0.864,-0.157,0.475,-11.719,0.916,0.671
0.860,-0.153,0.468,-9.033,2.930,0.427
0.863,-0.156,0.457,-3.967,4.150,0.488
0.864,-0.162,0.446,-0.977,4.639,0.427
0.866,-0.166,0.441,0.183,4.272,0.427
0.871,-0.175,0.437,0.549,3.174,0.427
0.871,-0.178,0.433,0.610,1.648,0.610
0.862,-0.169,0.435,-0.427,0.366,1.526
0.858,-0.158,0.441,0.061,-0.732,2.747
0.859,-0.153,0.445,3.113,-2.319,3.601
0.864,-0.154,0.449,5.127,-3.967,3.845
0.862,-0.149,0.458,3.174,-5.005,3.845
0.862,-0.144,0.466,-0.305,-5.798,2.991
0.859,-0.149,0.468,-1.831,-6.287,1.831
0.861,-0.155,0.470,-2.319,-6.104,0.916
0.867,-0.164,0.478,-3.418,-5.188,-0.244
0.866,-0.167,0.488,-5.859,-4.028,-0.854
0.859,-0.165,0.496,-7.568,-2.563,-1.038
0.856,-0.161,0.498,-6.226,-1.099,-0.977
0.859,-0.165,0.497,-2.686,0.183,-0.671

0.993,-0.125,0.960,15.320,55.664,17.456
0.961,-0.112,1.083,10.010,66.772,19.592
0.937,-0.071,1.223,3.235,96.680,18.066
0.942,-0.068,1.403,9.277,135.498,18.677
0.883,-0.132,1.532,31.311,185.181,19.958
0.839,-0.163,1.618,48.401,251.282,25.330
0.726,-0.182,1.605,54.504,334.351,33.447
0.552,-0.212,1.502,54.810,424.683,41.809
0.397,-0.195,1.277,61.890,514.038,55.054
0.226,-0.154,0.973,77.942,598.022,70.496
0.117,-0.116,0.563,91.003,660.156,85.632
-0.016,-0.041,0.129,92.712,704.773,97.961
-0.083,0.081,-0.296,88.257,732.971,102.661
-0.209,0.162,-0.683,83.801,738.281,99.976
-0.267,0.193,-1.078,80.872,725.403,94.727
-0.328,0.228,-1.475,77.698,687.134,89.600
-0.353,0.301,-1.851,62.744,618.530,82.092
-0.353,0.317,-2.103,41.626,515.381,68.542
-0.356,0.230,-2.216,13.489,385.681,54.504
-0.268,0.149,-2.126,-25.940,248.047,41.809
-0.220,0.013,-1.915,-60.425,129.211,28.259
-0.179,-0.104,-1.682,-82.703,37.415,20.569
-0.118,-0.171,-1.493,-91.492,-23.865,21.057
-0.034,-0.201,-1.338,-89.905,-64.270,25.818
0.016,-0.208,-1.207,-86.487,-89.966,31.067
0.068,-0.177,-1.099,-86.670,-102.539,36.438
0.117,-0.135,-1.027,-83.557,-104.065,38.574
0.168,-0.109,-0.994,-71.289,-98.633,36.194
0.208,-0.088,-0.992,-55.908,-91.125,31.494
0.257,-0.055,-1.007,-43.640,-84.351,26.672
0.315,-0.013,-1.033,-32.959,-81.299,20.325
0.396,0.017,-1.061,-18.921,-84.778,11.475
0.477,0.025,-1.079,-3.113,-97.656,2.075
0.514,0.023,-1.062,10.254,-119.019,-5.554
0.554,0.011,-1.025,18.066,-142.273,-12.939
0.589,-0.013,-0.981,18.311,-164.551,-19.714
0.612,-0.039,-0.922,13.733,-186.523,-25.085
0.616,-0.045,-0.850,9.399,-207.886,-28.381
0.625,-0.036,-0.765,10.681,-228.027,-31.250
0.655,-0.028,-0.674,19.165,-246.826,-35.522
0.689,-0.044,-0.581,30.640,-262.451,-41.748
0.704,-0.083,-0.501,37.231,-273.621,-46.387
0.732,-0.118,-0.437,31.494,-279.053,-46.265
0.773,-0.121,-0.376,15.259,-280.396,-41.748
0.788,-0.105,-0.306,0.977,-279.907,-36.621
0.799,-0.092,-0.239,-4.578,-277.893,-32.654
0.818,-0.086,-0.175,-4.639,-273.743,-30.273
0.838,-0.084,-0.118,-3.601,-267.212,-29.297
0.856,-0.084,-0.070,-2.563,-258.850,-29.480
0.878,-0.088,-0.026,-1.160,-248.840,-30.823
0.902,-0.092,0.014,2.136,-237.549,-32.959
0.914,-0.098,0.054,8.240,-225.647,-35.034
0.922,-0.107,0.088,17.273,-214.294,-36.255
0.944,-0.136,0.109,24.780,-203.674,-36.377
0.971,-0.178,0.123,23.315,-193.970,-34.912
0.978,-0.199,0.148,9.949,-185.181,-31.494
0.963,-0.190,0.186,-6.165,-177.429,-26.123
0.960,-0.176,0.220,-16.113,-170.349,-20.264
0.961,-0.158,0.251,-16.296,-164.551,-13.977
0.967,-0.143,0.273,-10.315,-159.912,-9.216
0.967,-0.144,0.296,-6.287,-154.419,-7.080
0.960,-0.141,0.316,-9.521,-148.560,-6.531
0.952,-0.134,0.337,-16.357,-143.738,-6.165
0.946,-0.124,0.354,-20.081,-139.709,-5.798
0.941,-0.121,0.371,-17.578,-136.353,-6.531
0.937,-0.128,0.387,-12.329,-133.423,-7.812
0.935,-0.136,0.397,-9.155,-130.310,-8.667
0.924,-0.144,0.406,-9.399,-127.319,-9.094
0.921,-0.149,0.415,-13.428,-122.986,-9.399
0.925,-0.148,0.432,-21.667,-116.882,-10.803
0.916,-0.147,0.456,-30.518,-109.253,-13.794
0.901,-0.155,0.484,-37.231,-101.563,-17.151
0.893,-0.170,0.507,-40.405,-95.215,-19.958
0.892,-0.194,0.529,-38.513,-90.515,-21.240
0.897,-0.224,0.548,-33.936,-86.243,-21.057
0.892,-0.244,0.563,-30.945,-82.153,-19.348
0.882,-0.249,0.577,-29.785,-77.454,-15.747
0.873,-0.241,0.584,-28.748,-71.716,-11.230
0.870,-0.231,0.586,-26.184,-65.430,-6.775
0.868,-0.217,0.584,-21.484,-59.692,-3.357
0.857,-0.207,0.580,-16.357,-54.138,-1.404
0.848,-0.198,0.577,-12.146,-48.706,-0.366
0.839,-0.187,0.575,-10.742,-43.457,0.549
0.838,-0.177,0.575,-10.864,-37.964,0.732
0.831,-0.172,0.578,-11.841,-32.654,-0.244
0.824,-0.169,0.579,-12.024,-27.649,-1.160
0.824,-0.172,0.575,-10.864,-23.010,-1.831
0.822,-0.177,0.568,-8.606,-19.226,-2.075
0.822,-0.182,0.556,-6.714,-15.991,-1.587
0.821,-0.183,0.549,-5.981,-13.428,-1.038
0.818,-0.177,0.546,-6.897,-11.108,-0.671
0.814,-0.170,0.545,-7.935,-10.071,-0.305
0.817,-0.170,0.545,-7.874,-9.705,-0.183
0.820,-0.171,0.547,-7.812,-9.705,-0.488
0.819,-0.177,0.556,-7.996,-10.010,-0.793
0.822,-0.185,0.565,-8.362,-10.742,-0.977
0.824,-0.193,0.573,-8.362,-11.780,-1.038
0.817,-0.196,0.580,-7.935,-11.963,-0.671
0.811,-0.194,0.583,-6.592,-11.292,0.854
0.809,-0.189,0.585,-4.639,-9.827,2.625
0.804,-0.177,0.587,-4.211,-7.019,3.845
0.802,-0.165,0.586,-4.089,-4.456,4.456
0.799,-0.160,0.577,-2.625,-2.258,4.456
0.802,-0.160,0.566,-1.770,-0.427,3.845
0.803,-0.158,0.558,-2.625,1.343,2.869
0.803,-0.153,0.550,-5.005,3.052,1.892
0.801,-0.154,0.542,-5.188,3.784,0.854
0.798,-0.159,0.532,-3.296,3.845,0.366
0.802,-0.160,0.524,-1.892,2.319,0.854
0.802,-0.155,0.522,-0.854,0.305,1.648
0.800,-0.151,0.521,0.061,-2.197,2.563
0.803,-0.147,0.526,0.366,-4.883,2.869
0.802,-0.144,0.536,-0.732,-7.690,2.502
0.798,-0.142,0.545,-2.319,-9.644,1.587
0.797,-0.146,0.554,-2.991,-11.047,0.549
0.798,-0.150,0.562,-3.540,-11.841,-0.122
0.795,-0.156,0.574,-4.578,-11.780,-0.671
0.795,-0.165,0.581,-5.310,-11.169,-0.916
0.795,-0.172,0.585,-5.371,-10.010,-1.038

0.802,-0.114,1.573,-14.648,-35.095,20.447
0.914,-0.034,1.959,-44.250,-43.213,33.386
0.836,0.070,2.350,-83.618,7.141,28.503
0.537,0.062,2.520,-99.976,127.686,4.028
0.297,-0.072,2.385,-81.299,282.776,-21.423
0.202,-0.172,1.997,-57.129,447.876,-33.447
0.179,-0.207,1.519,-30.762,586.731,-34.973
0.104,-0.227,1.090,2.808,675.720,-27.893
0.020,-0.174,0.704,36.926,719.116,-8.423
-0.062,-0.120,0.332,83.008,744.568,15.564
0.015,-0.030,-0.087,119.202,754.700,41.016
-0.051,0.062,-0.372,115.601,740.784,55.969
-0.029,0.117,-0.578,98.633,714.905,55.542
-0.037,0.107,-0.747,84.351,682.312,49.622
-0.046,0.080,-0.929,78.796,645.447,46.936
-0.026,0.088,-1.136,77.698,601.074,50.903
-0.045,0.142,-1.385,78.064,540.771,57.495
-0.062,0.227,-1.612,66.040,461.731,62.317
-0.109,0.269,-1.720,39.734,370.728,57.129
-0.068,0.248,-1.769,5.005,282.654,39.368
-0.014,0.168,-1.714,-29.419,199.524,16.174
0.007,0.043,-1.581,-52.612,124.634,-4.761
0.064,-0.061,-1.437,-63.049,67.200,-19.348
0.129,-0.166,-1.318,-58.960,27.161,-26.917
0.173,-0.241,-1.224,-51.025,2.197,-28.198
0.202,-0.284,-1.165,-44.495,-10.925,-23.987
0.196,-0.287,-1.142,-39.795,-15.747,-15.442
0.202,-0.254,-1.153,-33.264,-14.893,-6.714
0.227,-0.214,-1.194,-24.597,-15.808,-1.526
0.252,-0.166,-1.218,-16.846,-25.391,-0.244
0.249,-0.127,-1.214,-11.414,-42.358,-1.038
0.262,-0.088,-1.198,-9.033,-61.829,-3.296
0.300,-0.063,-1.174,-7.874,-82.642,-7.568
0.345,-0.061,-1.135,-5.798,-105.835,-12.390
0.396,-0.074,-1.085,-5.615,-129.456,-16.541
0.427,-0.080,-1.024,-8.362,-152.954,-19.104
0.471,-0.072,-0.956,-8.057,-174.255,-21.606
0.504,-0.066,-0.886,0.305,-192.566,-25.452
0.550,-0.067,-0.823,13.672,-208.374,-30.457
0.603,-0.072,-0.763,26.978,-221.252,-36.255
0.643,-0.088,-0.695,38.452,-232.361,-43.152
0.668,-0.105,-0.617,45.837,-241.333,-49.011
0.697,-0.121,-0.540,49.805,-248.169,-52.612
0.720,-0.135,-0.472,51.880,-252.808,-53.955
0.761,-0.162,-0.413,50.354,-255.554,-53.284
0.796,-0.184,-0.363,41.199,-256.592,-49.500
0.807,-0.176,-0.308,23.682,-256.470,-43.335
0.804,-0.148,-0.252,7.874,-254.822,-36.011
0.802,-0.111,-0.199,3.601,-252.380,-29.602
0.800,-0.071,-0.146,10.559,-248.779,-25.940
0.806,-0.037,-0.101,22.217,-244.629,-25.269
0.820,-0.015,-0.059,32.959,-240.295,-27.100
0.836,-0.006,-0.019,40.039,-235.413,-30.518
0.842,-0.013,0.021,41.931,-230.347,-34.607
0.862,-0.032,0.054,39.429,-225.281,-39.185
0.895,-0.046,0.089,30.273,-219.177,-43.640
0.915,-0.067,0.129,17.395,-212.280,-47.729
0.945,-0.088,0.175,5.737,-205.322,-52.368
0.984,-0.126,0.221,-1.831,-200.073,-58.228
1.012,-0.224,0.252,-7.629,-197.510,-64.575
1.015,-0.327,0.288,-23.193,-195.251,-67.871
0.991,-0.374,0.340,-49.438,-191.284,-63.416
0.979,-0.381,0.397,-67.627,-185.608,-52.124
0.978,-0.382,0.442,-66.956,-179.932,-38.513
0.977,-0.382,0.482,-56.091,-173.157,-25.085
0.972,-0.367,0.515,-49.561,-163.330,-12.268
0.964,-0.326,0.546,-50.232,-150.757,-1.709
0.952,-0.273,0.568,-51.575,-136.597,5.676
0.937,-0.234,0.581,-47.913,-122.131,9.521
0.927,-0.212,0.580,-39.612,-107.483,9.949
0.922,-0.203,0.574,-32.043,-92.957,8.423
0.911,-0.195,0.565,-28.015,-78.613,6.409
0.901,-0.192,0.549,-26.306,-65.430,4.089
0.899,-0.193,0.531,-24.902,-53.040,1.709
0.892,-0.196,0.515,-24.902,-40.161,-0.366
0.880,-0.195,0.500,-25.513,-29.053,-1.160
0.878,-0.202,0.479,-23.010,-20.630,-1.465
0.880,-0.210,0.461,-17.212,-15.808,-1.465
0.881,-0.213,0.445,-11.169,-14.160,-1.221
0.880,-0.211,0.435,-5.859,-15.015,-0.732
0.876,-0.209,0.431,-1.831,-17.456,0.183
0.874,-0.212,0.429,0.793,-21.057,0.916
0.872,-0.217,0.430,0.977,-25.024,1.587
0.849,-0.228,0.438,-1.648,-29.114,2.930
0.840,-0.226,0.445,-9.094,-32.532,3.723
0.848,-0.214,0.454,-23.010,-34.729,5.554
0.859,-0.197,0.465,-34.119,-36.194,8.118
0.874,-0.189,0.471,-37.476,-37.476,10.742
0.863,-0.196,0.476,-33.142,-37.842,12.756
0.865,-0.188,0.482,-29.236,-37.598,13.794
0.882,-0.177,0.489,-26.001,-37.292,15.381
0.869,-0.170,0.504,-22.644,-35.950,15.259
0.847,-0.162,0.520,-20.142,-34.912,12.268
0.837,-0.154,0.535,-20.081,-33.752,9.827
0.840,-0.149,0.547,-21.118,-31.189,7.996
0.847,-0.149,0.563,-23.376,-26.733,5.493
0.844,-0.135,0.585,-30.518,-19.897,2.686
0.829,-0.120,0.600,-36.987,-12.451,0.183
0.825,-0.125,0.599,-33.325,-6.409,-1.709
0.826,-0.144,0.586,-23.254,-1.892,-3.052
0.827,-0.157,0.571,-14.954,1.160,-2.625
0.827,-0.157,0.554,-9.949,3.845,-1.282
0.828,-0.153,0.536,-6.165,5.493,-0.061
0.830,-0.156,0.519,-2.319,5.554,0.854
0.828,-0.157,0.503,0.671,4.578,1.648
0.827,-0.156,0.495,2.563,2.441,2.747
0.829,-0.152,0.489,3.601,-0.061,3.784
0.830,-0.151,0.489,3.723,-2.808,4.517
0.837,-0.153,0.492,2.869,-5.859,4.700
0.836,-0.152,0.502,-0.427,-7.690,4.028
0.833,-0.148,0.517,-5.493,-8.545,3.235
0.832,-0.150,0.528,-8.667,-8.728,2.380
0.829,-0.151,0.537,-9.705,-7.996,1.831
0.821,-0.145,0.545,-10.437,-5.920,1.892
0.820,-0.140,0.548,-9.155,-3.540,2.136
0.820,-0.137,0.547,-5.981,-1.770,2.319
0.822,-0.137,0.541,-2.930,-0.488,2.197
0.819,-0.134,0.536,-1.343,0.977,1.953
0.817,-0.129,0.531,-0.488,1.892,1.953

0.856,-0.150,1.277,6.104,32.837,3.662
0.904,-0.114,1.538,10.193,68.481,7.202
0.868,-0.138,1.736,31.677,118.042,10.803
0.798,-0.176,1.937,60.425,192.017,15.137
0.798,-0.239,2.090,85.815,276.062,24.536
0.569,-0.312,2.126,104.187,378.113,40.039
0.457,-0.257,1.875,114.319,497.131,62.927
0.236,-0.152,1.503,130.310,606.201,85.632
0.036,-0.036,1.060,158.569,697.876,108.215
-0.063,0.121,0.547,182.312,758.728,126.831
-0.194,0.279,0.070,191.101,792.725,136.841
-0.249,0.380,-0.368,195.496,811.218,136.230
-0.146,0.387,-0.833,196.777,797.913,132.874
-0.128,0.456,-1.303,180.359,740.784,130.737
-0.096,0.489,-1.701,139.221,642.212,118.530
-0.107,0.484,-1.863,81.726,511.597,99.243
-0.064,0.412,-1.848,15.015,380.371,74.524
-0.049,0.300,-1.711,-37.109,266.541,48.706
-0.043,0.156,-1.533,-60.852,175.781,28.625
0.012,0.056,-1.365,-65.247,109.497,19.043
0.083,0.004,-1.226,-62.256,66.101,16.724
0.169,-0.041,-1.145,-54.504,40.894,16.235
0.187,-0.068,-1.107,-50.659,27.222,18.066
0.162,-0.053,-1.091,-50.415,20.874,21.973
0.171,-0.023,-1.127,-42.419,19.836,23.926
0.213,-0.005,-1.190,-32.593,17.456,21.423
0.234,-0.002,-1.230,-30.518,7.935,16.479
0.238,-0.002,-1.245,-34.241,-6.653,11.292
0.244,0.002,-1.246,-36.621,-24.780,6.409
0.264,0.015,-1.236,-34.668,-45.410,2.991
0.303,0.041,-1.207,-29.175,-69.153,0.366
0.344,0.068,-1.158,-21.240,-93.689,-3.174
0.367,0.081,-1.107,-11.475,-116.455,-9.338
0.400,0.084,-1.067,-4.333,-135.559,-16.357
0.433,0.067,-1.031,-1.465,-153.015,-22.827
0.471,0.047,-0.992,-3.296,-170.410,-28.015
0.520,0.020,-0.948,-6.531,-189.087,-32.349
0.547,-0.016,-0.881,-7.202,-209.045,-37.476
0.582,-0.045,-0.802,-7.324,-228.333,-42.053
0.635,-0.077,-0.718,-5.493,-246.521,-45.044
0.681,-0.109,-0.629,-3.174,-262.634,-45.105
0.704,-0.134,-0.546,-4.272,-275.208,-42.053
0.738,-0.152,-0.479,-9.277,-282.288,-36.682
0.769,-0.158,-0.415,-18.250,-285.767,-29.602
0.780,-0.154,-0.347,-30.762,-287.659,-20.447
0.812,-0.129,-0.278,-43.457,-288.513,-11.902
0.838,-0.102,-0.201,-48.035,-288.696,-4.822
0.848,-0.076,-0.119,-43.152,-287.720,0.000
0.859,-0.039,-0.039,-33.264,-283.569,3.601
0.875,-0.010,0.025,-20.142,-276.611,5.127
0.886,0.013,0.086,-6.470,-265.991,3.601
0.898,0.038,0.135,3.967,-252.686,0.854
0.909,0.056,0.173,12.512,-238.220,-2.136
0.913,0.056,0.203,17.944,-223.083,-6.165
0.927,0.039,0.230,15.686,-207.703,-10.193
0.949,0.022,0.255,4.150,-193.054,-12.451
0.972,-0.002,0.282,-10.620,-180.054,-14.099
0.984,-0.034,0.308,-24.536,-169.006,-15.381
0.985,-0.047,0.339,-33.264,-158.936,-15.564
0.981,-0.061,0.370,-33.691,-148.560,-15.015
0.976,-0.068,0.396,-28.381,-137.939,-12.939
0.978,-0.064,0.416,-21.851,-127.380,-8.972
0.973,-0.046,0.428,-17.578,-116.089,-5.066
0.960,-0.018,0.434,-13.611,-103.394,-2.563
0.951,0.012,0.435,-8.118,-91.370,-1.892
0.950,0.029,0.427,-1.526,-81.238,-3.662
0.961,0.005,0.414,4.944,-73.059,-8.850
0.981,-0.053,0.400,5.127,-67.505,-14.832
0.988,-0.113,0.398,-5.127,-63.904,-18.127
0.978,-0.139,0.411,-20.935,-61.157,-18.188
0.969,-0.144,0.427,-30.640,-57.983,-16.785
0.960,-0.145,0.441,-29.541,-54.321,-14.099
0.955,-0.144,0.445,-21.423,-49.866,-10.864
0.945,-0.141,0.446,-14.038,-44.250,-7.446
0.935,-0.125,0.440,-10.071,-37.903,-3.540
0.928,-0.108,0.427,-6.287,-31.738,-1.038
0.927,-0.100,0.414,-2.747,-26.367,-0.305
0.923,-0.094,0.407,-1.831,-21.545,-0.854
0.920,-0.094,0.403,-1.648,-18.494,-1.526
0.917,-0.104,0.393,-0.549,-16.724,-2.747
0.915,-0.111,0.386,-0.549,-15.808,-3.357
0.915,-0.117,0.380,-1.953,-15.747,-2.991
0.915,-0.114,0.376,-3.845,-15.564,-2.197
0.905,-0.103,0.376,-6.287,-15.808,-1.343
0.903,-0.095,0.376,-5.737,-17.334,-0.732
0.908,-0.096,0.376,-3.113,-19.470,0.000
0.907,-0.096,0.381,-2.502,-22.156,0.244
0.903,-0.091,0.393,-4.333,-24.902,0.366
0.904,-0.089,0.405,-5.920,-28.198,0.366
0.903,-0.093,0.419,-5.371,-31.860,-0.183
0.901,-0.094,0.431,-4.700,-35.339,-0.366
0.896,-0.092,0.443,-4.822,-38.086,-0.061
0.891,-0.089,0.456,-4.639,-39.795,0.244
0.894,-0.099,0.463,-4.883,-39.978,0.183
0.891,-0.098,0.479,-9.033,-37.842,0.122
0.884,-0.085,0.493,-14.893,-34.729,0.671
0.874,-0.080,0.500,-15.442,-31.616,0.671
0.873,-0.086,0.499,-11.230,-28.503,0.122
0.877,-0.091,0.501,-8.057,-25.146,-0.366
0.877,-0.091,0.506,-7.263,-21.973,-0.488
0.879,-0.099,0.509,-6.409,-19.653,-0.671
0.876,-0.105,0.508,-5.554,-17.334,-0.671
0.869,-0.097,0.509,-6.836,-14.221,0.244
0.868,-0.086,0.507,-7.446,-11.414,1.404
0.865,-0.084,0.501,-5.615,-9.521,2.014
0.863,-0.082,0.495,-4.150,-7.874,1.953
0.860,-0.080,0.491,-3.479,-6.897,1.526
0.860,-0.089,0.487,-1.831,-7.324,0.793
0.865,-0.103,0.487,-1.282,-8.057,0.305
0.861,-0.097,0.497,-4.150,-7.751,0.488
0.855,-0.086,0.502,-6.836,-7.385,1.160
0.853,-0.084,0.504,-5.432,-6.470,1.465
0.850,-0.079,0.503,-3.784,-4.883,1.709
0.853,-0.076,0.501,-3.357,-3.601,1.648
0.853,-0.074,0.498,-2.808,-3.052,1.404
0.850,-0.076,0.494,-2.686,-2.686,0.671
0.850,-0.078,0.492,-2.747,-2.686,0.061
0.851,-0.084,0.490,-2.136,-3.174,-0.305
0.852,-0.092,0.486,-1.343,-4.333,-0.671

0.930,-0.002,1.366,37.048,3.418,12.085
0.867,0.002,1.605,39.795,25.269,15.930
0.842,0.002,1.839,39.856,78.186,13.428
0.825,-0.025,2.020,49.683,158.875,12.451
0.713,-0.126,2.079,65.918,253.601,15.259
0.493,-0.187,2.040,73.425,368.896,20.813
0.456,-0.186,1.825,84.717,489.563,29.419
0.283,-0.266,1.512,117.004,595.215,41.809
0.122,-0.257,1.159,142.334,684.143,64.209
0.028,-0.204,0.767,156.372,749.023,92.407
-0.006,-0.115,0.356,168.823,785.522,121.338
-0.143,-0.012,-0.028,170.715,804.016,148.621
-0.200,0.064,-0.417,159.790,802.979,171.204
-0.292,0.263,-0.807,139.709,779.602,191.833
-0.309,0.454,-1.224,132.446,734.314,195.190
-0.345,0.556,-1.596,123.962,662.537,180.298
-0.385,0.566,-1.923,86.365,568.237,155.457
-0.306,0.605,-2.101,21.179,441.284,129.150
-0.240,0.474,-2.019,-33.264,292.175,97.351
-0.130,0.284,-1.739,-81.177,158.447,63.110
-0.031,0.092,-1.428,-115.356,58.838,39.978
-0.030,-0.068,-1.198,-120.056,-0.122,33.203
-0.017,-0.078,-1.093,-113.831,-25.879,44.312
0.013,-0.004,-1.068,-98.816,-33.020,60.913
0.033,0.088,-1.039,-78.247,-31.433,67.627
0.091,0.167,-1.008,-62.622,-22.949,60.608
0.125,0.159,-1.009,-53.772,-11.108,44.312
0.141,0.159,-1.026,-47.974,-4.578,30.457
0.152,0.177,-1.039,-35.461,-4.150,20.142
0.182,0.192,-1.055,-20.508,-6.348,10.498
0.201,0.182,-1.080,-10.803,-9.644,-0.122
0.233,0.171,-1.111,-8.667,-15.137,-10.803
0.270,0.150,-1.125,-6.836,-26.184,-19.714
0.312,0.130,-1.114,-4.822,-43.213,-26.428
0.366,0.118,-1.085,-2.991,-63.049,-30.640
0.421,0.112,-1.043,-1.953,-82.581,-33.142
0.456,0.111,-1.006,-0.610,-98.572,-35.034
0.466,0.118,-0.984,1.343,-108.948,-36.987
0.460,0.142,-0.965,3.784,-114.685,-39.063
0.461,0.162,-0.955,9.460,-118.713,-42.786
0.470,0.168,-0.949,18.311,-124.451,-49.377
0.493,0.146,-0.937,25.330,-134.644,-58.716
0.520,0.106,-0.907,27.405,-148.376,-68.970
0.536,0.068,-0.863,23.621,-162.720,-78.430
0.557,0.032,-0.807,20.203,-176.941,-86.060
0.585,-0.017,-0.748,20.203,-189.697,-91.431
0.635,-0.075,-0.700,19.714,-201.233,-92.529
0.667,-0.120,-0.653,12.451,-211.853,-87.891
0.687,-0.138,-0.602,0.000,-221.008,-78.552
0.701,-0.146,-0.556,-11.719,-227.234,-68.237
0.738,-0.141,-0.512,-22.827,-231.506,-57.678
0.782,-0.122,-0.463,-33.081,-235.840,-48.157
0.809,-0.109,-0.407,-36.865,-240.662,-42.297
0.835,-0.106,-0.348,-33.264,-244.385,-39.734
0.853,-0.099,-0.291,-27.039,-246.033,-38.574
0.874,-0.092,-0.231,-18.799,-245.850,-37.781
0.892,-0.086,-0.175,-8.057,-244.385,-37.598
0.907,-0.083,-0.122,3.235,-242.371,-37.292
0.918,-0.085,-0.070,11.292,-239.258,-36.987
0.931,-0.083,-0.023,14.221,-234.924,-36.560
0.934,-0.074,0.021,16.113,-230.774,-36.072
0.936,-0.069,0.061,19.958,-226.318,-36.194
0.957,-0.096,0.093,23.010,-221.497,-37.109
0.994,-0.146,0.116,18.188,-216.797,-37.903
0.990,-0.184,0.155,1.099,-212.036,-36.377
0.975,-0.194,0.205,-20.325,-206.360,-32.349
0.975,-0.195,0.254,-34.485,-199.707,-26.917
0.979,-0.195,0.302,-38.330,-192.871,-20.813
0.971,-0.184,0.348,-37.720,-185.059,-14.038
0.964,-0.164,0.389,-35.278,-175.659,-7.446
0.966,-0.148,0.420,-32.288,-165.283,-2.625
0.971,-0.140,0.445,-30.334,-152.893,-0.793
0.968,-0.123,0.474,-35.645,-137.268,0.366
0.963,-0.100,0.499,-43.030,-121.399,0.610
0.951,-0.087,0.509,-44.006,-106.873,-0.122
0.944,-0.081,0.509,-38.452,-93.872,-0.977
0.940,-0.074,0.503,-29.968,-82.336,-1.648
0.934,-0.073,0.496,-20.996,-71.228,-2.808
0.934,-0.085,0.481,-13.611,-60.791,-3.967
0.929,-0.097,0.463,-9.399,-51.392,-5.249
0.919,-0.105,0.446,-7.812,-42.664,-6.104
0.916,-0.118,0.429,-6.226,-35.583,-6.592
0.914,-0.125,0.415,-4.944,-29.907,-6.531
0.911,-0.128,0.405,-4.822,-26.001,-5.859
0.915,-0.134,0.397,-4.639,-24.048,-5.066
0.914,-0.139,0.391,-4.578,-24.170,-4.517
0.909,-0.141,0.391,-4.761,-25.818,-3.906
0.906,-0.138,0.394,-5.371,-28.503,-2.930
0.903,-0.135,0.402,-5.920,-31.860,-2.075
0.903,-0.139,0.411,-5.981,-35.156,-1.953
0.909,-0.155,0.423,-6.226,-38.208,-2.441
0.909,-0.173,0.436,-8.057,-40.710,-2.930
0.905,-0.181,0.450,-12.390,-41.748,-2.625
0.904,-0.183,0.469,-16.724,-41.321,-1.587
0.894,-0.171,0.492,-20.508,-38.330,-0.671
0.883,-0.151,0.511,-22.339,-33.936,0.854
0.880,-0.142,0.519,-18.799,-29.114,2.258
0.879,-0.140,0.520,-13.367,-23.987,2.563
0.877,-0.137,0.516,-9.583,-18.494,2.625
0.873,-0.131,0.508,-6.775,-13.672,2.808
0.869,-0.127,0.498,-4.089,-9.888,2.808
0.872,-0.125,0.485,-2.197,-7.263,2.808
0.872,-0.124,0.478,-1.953,-5.493,2.441
0.872,-0.126,0.472,-2.014,-5.310,2.014
0.871,-0.129,0.472,-2.197,-6.226,1.587
0.869,-0.132,0.472,-2.258,-7.446,1.648
0.872,-0.133,0.474,-2.441,-8.667,2.136
0.867,-0.123,0.480,-3.784,-9.216,2.930
0.862,-0.114,0.484,-4.700,-9.033,3.357
0.861,-0.114,0.485,-3.479,-9.094,3.235
0.859,-0.114,0.485,-3.052,-8.728,2.625
0.861,-0.114,0.487,-3.540,-8.179,2.319
0.863,-0.116,0.492,-4.822,-7.141,1.892
0.858,-0.112,0.497,-6.348,-5.737,1.404
0.856,-0.115,0.498,-6.287,-4.883,1.160
0.854,-0.118,0.495,-4.517,-3.906,0.977
0.856,-0.120,0.491,-2.869,-3.174,1.160
0.856,-0.122,0.486,-1.648,-2.869,1.160
0.857,-0.122,0.482,-0.793,-2.930,1.404

0.926,-0.116,1.202,25.085,48.462,10.681
1.033,-0.085,1.453,36.560,70.129,18.799
0.973,-0.097,1.658,53.772,108.643,26.184
0.862,-0.157,1.822,71.350,182.678,30.884
0.738,-0.186,1.824,89.905,283.997,39.978
0.642,-0.196,1.689,110.107,395.813,55.115
0.477,-0.204,1.464,131.226,495.117,75.684
0.398,-0.178,1.150,146.179,578.369,97.168
0.404,-0.103,0.805,150.452,631.775,115.173
0.314,-0.071,0.483,148.560,654.419,126.465
0.207,-0.042,0.150,132.874,664.307,138.794
0.167,0.077,-0.230,93.018,662.415,151.917
0.191,0.177,-0.631,54.565,640.259,155.762
0.157,0.255,-0.962,32.043,594.788,149.292
0.088,0.324,-1.209,13.062,532.471,137.573
0.088,0.348,-1.411,-3.540,461.243,122.925
0.101,0.331,-1.551,-21.423,379.333,106.018
0.113,0.292,-1.554,-39.246,291.260,88.257
0.114,0.215,-1.453,-53.223,209.290,71.167
0.113,0.163,-1.322,-66.833,145.874,56.885
0.102,0.107,-1.231,-69.519,104.980,47.302
0.119,0.072,-1.200,-63.416,81.604,40.405
0.137,0.067,-1.199,-56.641,67.200,35.767
0.151,0.083,-1.200,-49.194,54.138,31.128
0.188,0.106,-1.196,-41.382,40.710,24.292
0.217,0.093,-1.193,-33.936,25.330,15.015
0.243,0.077,-1.164,-30.640,9.399,5.432
0.271,0.056,-1.121,-27.771,-5.371,-2.075
0.312,0.035,-1.094,-22.766,-17.517,-7.690
0.337,0.026,-1.076,-19.226,-26.489,-11.169
0.369,0.032,-1.065,-16.296,-34.485,-13.489
0.398,0.035,-1.053,-12.268,-43.396,-15.564
0.425,0.035,-1.044,-8.911,-53.772,-18.494
0.447,0.042,-1.033,-5.859,-64.636,-21.240
0.473,0.059,-1.025,-2.625,-76.538,-23.682
0.496,0.084,-1.015,0.854,-89.722,-26.001
0.511,0.109,-1.001,6.409,-104.126,-29.175
0.518,0.138,-0.981,14.221,-119.324,-33.752
0.518,0.165,-0.953,23.499,-134.277,-40.100
0.520,0.181,-0.924,31.555,-148.926,-48.645
0.523,0.181,-0.883,33.997,-163.940,-59.143
0.571,0.147,-0.840,30.396,-179.382,-71.594
0.609,0.057,-0.778,23.499,-197.693,-84.045
0.650,-0.038,-0.709,8.057,-215.271,-91.736
0.686,-0.086,-0.621,-12.146,-229.919,-92.590
0.695,-0.102,-0.535,-24.902,-241.028,-89.172
0.717,-0.118,-0.473,-23.865,-248.535,-84.106
0.731,-0.124,-0.406,-19.775,-253.052,-77.759
0.761,-0.117,-0.347,-18.311,-255.066,-71.167
0.774,-0.097,-0.288,-16.418,-255.005,-65.613
0.784,-0.079,-0.229,-10.437,-253.296,-61.707
0.807,-0.077,-0.178,-2.197,-250.305,-61.768
0.836,-0.087,-0.136,5.371,-246.338,-64.758
0.868,-0.123,-0.101,10.742,-243.225,-69.031
0.906,-0.183,-0.068,9.583,-241.150,-72.815
0.900,-0.250,-0.013,-2.075,-240.112,-74.158
0.965,-0.299,0.025,-24.170,-241.211,-72.815
0.990,-0.330,0.082,-51.331,-241.760,-64.270
0.972,-0.344,0.150,-70.435,-241.394,-50.659
0.940,-0.333,0.223,-78.064,-239.929,-34.424
0.927,-0.294,0.291,-75.012,-236.938,-17.456
0.933,-0.243,0.348,-66.101,-232.117,-3.113
0.931,-0.195,0.413,-57.739,-223.511,5.981
0.926,-0.149,0.466,-54.688,-211.121,10.498
0.921,-0.108,0.511,-54.016,-196.716,10.986
0.909,-0.078,0.547,-51.025,-181.641,9.033
0.911,-0.063,0.573,-46.387,-166.321,6.042
0.927,-0.065,0.592,-41.077,-152.405,1.953
0.926,-0.075,0.607,-37.781,-138.916,-2.014
0.918,-0.095,0.614,-34.058,-125.244,-6.409
0.911,-0.125,0.615,-28.809,-110.718,-9.888
0.909,-0.149,0.619,-25.940,-96.130,-11.353
0.913,-0.163,0.623,-27.466,-80.688,-11.169
0.904,-0.167,0.624,-29.480,-65.796,-9.888
0.896,-0.165,0.618,-28.320,-51.819,-8.484
0.896,-0.160,0.606,-23.376,-38.757,-6.958
0.888,-0.155,0.588,-17.090,-27.283,-5.737
0.882,-0.154,0.565,-10.803,-17.456,-4.700
0.882,-0.159,0.539,-6.104,-9.583,-4.089
0.882,-0.170,0.510,-3.723,-4.333,-3.845
0.876,-0.176,0.485,-4.150,-1.770,-3.723
0.872,-0.176,0.463,-5.127,-0.854,-3.113
0.866,-0.173,0.448,-4.517,-1.099,-2.319
0.863,-0.170,0.434,-2.625,-1.770,-1.587
0.863,-0.170,0.424,-0.732,-2.869,-1.160
0.866,-0.173,0.420,0.122,-4.333,-1.038
0.871,-0.177,0.424,-1.282,-5.737,-1.221
0.874,-0.184,0.430,-3.601,-7.568,-1.404
0.871,-0.186,0.435,-6.165,-9.827,-1.648
0.868,-0.188,0.445,-8.057,-11.292,-1.831
0.868,-0.196,0.454,-8.362,-12.390,-1.709
0.873,-0.208,0.464,-6.958,-14.038,-1.709
0.871,-0.213,0.472,-6.104,-15.625,-1.282
0.861,-0.204,0.481,-6.348,-16.663,0.061
0.858,-0.191,0.488,-5.005,-16.907,1.892
0.861,-0.182,0.492,-2.625,-16.968,3.662
0.861,-0.177,0.497,-0.977,-16.785,4.089
0.858,-0.172,0.501,-1.282,-16.052,4.089
0.855,-0.163,0.504,-3.235,-14.648,4.028
0.848,-0.150,0.505,-5.676,-13.000,3.784
0.844,-0.141,0.501,-5.859,-10.742,3.418
0.849,-0.138,0.497,-4.456,-8.484,2.869
0.853,-0.142,0.493,-4.211,-7.019,2.136
0.857,-0.148,0.488,-5.554,-6.409,1.221
0.852,-0.151,0.488,-7.690,-6.409,0.793
0.842,-0.148,0.488,-8.179,-6.531,0.977
0.837,-0.141,0.489,-5.920,-6.592,1.831
0.835,-0.137,0.495,-2.747,-6.897,2.625
0.836,-0.136,0.498,-0.732,-7.629,2.747
0.837,-0.141,0.501,-0.427,-8.362,2.502
0.842,-0.143,0.508,-2.625,-8.789,1.648
0.832,-0.142,0.516,-6.409,-8.911,0.305
0.827,-0.146,0.521,-8.179,-8.179,-0.793
0.828,-0.153,0.521,-7.324,-7.019,-1.160
0.837,-0.160,0.520,-5.737,-6.165,-1.282
0.842,-0.170,0.518,-5.310,-5.615,-1.343
0.839,-0.177,0.519,-6.104,-4.700,-1.343
0.838,-0.180,0.520,-6.653,-3.906,-1.343
0.840,-0.186,0.522,-5.493,-3.174,-1.160

0.792,-0.137,1.103,30.151,62.988,1.099
0.822,-0.172,1.300,55.786,93.994,4.395
0.898,-0.183,1.554,74.768,129.944,12.268
0.930,-0.209,1.743,83.191,173.401,21.240
0.826,-0.229,1.941,90.088,237.549,33.203
0.736,-0.229,1.997,99.121,317.505,52.307
0.586,-0.257,1.936,109.619,417.725,69.092
0.395,-0.308,1.755,118.896,520.691,85.388
0.306,-0.285,1.408,126.465,619.324,105.591
0.221,-0.277,0.987,136.963,699.646,120.544
0.068,-0.187,0.535,136.719,748.291,134.460
-0.061,-0.047,0.163,137.756,770.691,152.527
-0.082,0.058,-0.196,150.208,775.024,173.035
-0.099,0.156,-0.619,156.494,754.700,191.956
-0.219,0.290,-1.026,135.254,718.018,202.087
-0.306,0.453,-1.399,90.942,666.809,199.463
-0.358,0.560,-1.733,55.237,593.018,181.458
-0.384,0.579,-1.962,34.790,491.943,150.024
-0.355,0.509,-2.042,10.681,373.413,115.356
-0.319,0.397,-1.964,-24.963,249.817,84.717
-0.296,0.259,-1.760,-66.895,139.221,59.937
-0.185,0.128,-1.534,-95.154,52.246,42.847
-0.081,0.003,-1.334,-103.943,-8.423,34.485
-0.060,-0.030,-1.189,-108.154,-43.213,36.011
0.009,0.023,-1.112,-106.812,-59.448,42.358
0.065,0.056,-1.084,-92.041,-66.223,42.419
0.097,0.068,-1.066,-78.552,-67.078,35.339
0.120,0.085,-1.053,-71.045,-62.866,25.085
0.171,0.094,-1.059,-61.523,-56.335,13.916
0.216,0.092,-1.075,-48.706,-52.856,3.479
0.250,0.097,-1.075,-36.804,-54.016,-6.042
0.299,0.092,-1.076,-24.841,-57.556,-16.174
0.347,0.080,-1.082,-14.587,-63.965,-25.146
0.381,0.076,-1.089,-7.385,-73.303,-32.410
0.403,0.082,-1.090,-0.427,-85.938,-37.292
0.417,0.096,-1.094,8.545,-102.051,-40.955
0.427,0.098,-1.083,19.287,-121.643,-45.898
0.430,0.091,-1.058,24.536,-141.968,-51.880
0.450,0.084,-1.014,23.376,-162.903,-57.800
0.506,0.062,-0.964,19.653,-184.753,-64.148
0.527,0.026,-0.892,14.343,-208.130,-70.435
0.532,0.000,-0.804,3.906,-228.882,-74.463
0.563,-0.012,-0.718,-4.639,-244.873,-76.477
0.611,-0.038,-0.631,-7.935,-257.141,-78.247
0.651,-0.069,-0.551,-10.742,-267.151,-77.942
0.682,-0.094,-0.486,-18.311,-275.024,-74.402
0.719,-0.099,-0.428,-29.297,-279.053,-69.946
0.741,-0.097,-0.364,-38.086,-280.579,-67.261
0.762,-0.104,-0.300,-38.574,-280.762,-65.552
0.785,-0.116,-0.235,-30.884,-279.053,-64.636
0.814,-0.133,-0.172,-17.822,-275.513,-65.308
0.855,-0.165,-0.126,-3.235,-271.179,-66.956
0.899,-0.211,-0.091,3.784,-265.564,-68.359
0.925,-0.260,-0.055,-1.038,-258.240,-66.223
0.944,-0.290,-0.007,-15.015,-250.427,-60.059
0.964,-0.306,0.042,-28.870,-244.446,-50.964
0.977,-0.324,0.092,-37.231,-240.051,-40.588
0.969,-0.326,0.145,-42.358,-236.084,-27.954
0.964,-0.306,0.200,-45.410,-231.934,-13.184
0.956,-0.260,0.256,-44.983,-227.112,-0.366
0.948,-0.207,0.311,-39.612,-220.398,9.338
0.938,-0.160,0.365,-31.738,-210.571,15.137
0.935,-0.119,0.411,-26.489,-198.181,17.395
0.937,-0.082,0.451,-26.184,-184.509,17.029
0.931,-0.062,0.484,-27.893,-168.823,14.404
0.928,-0.044,0.506,-29.419,-150.208,9.155
0.918,-0.031,0.522,-29.114,-129.272,3.296
0.913,-0.029,0.525,-24.902,-108.398,-1.709
0.923,-0.055,0.512,-17.273,-88.867,-6.958
0.938,-0.094,0.491,-10.986,-72.266,-12.329
0.936,-0.130,0.469,-9.705,-59.204,-15.869
0.937,-0.156,0.447,-10.071,-49.622,-16.968
0.945,-0.180,0.427,-9.338,-43.884,-16.357
0.943,-0.202,0.414,-7.874,-41.321,-15.503
0.939,-0.219,0.407,-7.141,-40.833,-13.855
0.936,-0.222,0.406,-8.606,-41.260,-11.047
0.929,-0.214,0.407,-11.108,-42.786,-7.690
0.917,-0.204,0.409,-13.000,-44.739,-5.005
0.906,-0.194,0.412,-13.306,-46.326,-3.174
0.902,-0.187,0.418,-13.062,-47.852,-2.319
0.900,-0.184,0.420,-12.146,-49.072,-2.258
0.897,-0.180,0.430,-12.634,-49.255,-2.747
0.887,-0.179,0.443,-13.916,-48.340,-3.479
0.880,-0.184,0.453,-13.184,-47.180,-4.333
0.880,-0.193,0.460,-10.559,-45.532,-4.395
0.883,-0.202,0.465,-9.766,-43.457,-3.967
0.878,-0.201,0.470,-13.123,-41.016,-3.235
0.871,-0.193,0.473,-16.296,-38.330,-2.502
0.861,-0.184,0.477,-16.296,-35.339,-2.197
0.855,-0.177,0.482,-13.611,-32.410,-1.709
0.857,-0.174,0.488,-9.888,-30.945,-1.526
0.862,-0.177,0.492,-8.057,-30.457,-1.526
0.861,-0.182,0.500,-8.362,-30.640,-2.197
0.854,-0.187,0.507,-8.850,-31.006,-2.625
0.849,-0.191,0.516,-8.179,-31.311,-2.625
0.849,-0.196,0.525,-7.324,-31.311,-2.197
0.848,-0.197,0.536,-7.446,-29.968,-1.465
0.846,-0.199,0.547,-8.850,-28.015,-1.038
0.844,-0.197,0.557,-10.803,-25.024,-0.793
0.839,-0.193,0.564,-12.268,-21.667,-0.244
0.836,-0.186,0.567,-11.780,-17.883,0.610
0.837,-0.177,0.563,-9.521,-14.038,1.831
0.831,-0.165,0.557,-6.592,-9.766,2.869
0.824,-0.159,0.548,-3.174,-5.554,3.174
0.821,-0.158,0.534,-0.183,-2.014,2.991
0.823,-0.159,0.522,1.160,0.183,2.747
0.828,-0.160,0.510,1.282,1.343,2.258
0.831,-0.165,0.501,0.427,1.343,1.526
0.830,-0.168,0.500,-1.526,1.038,0.916
0.827,-0.168,0.500,-3.601,0.061,0.366
0.827,-0.169,0.501,-4.395,-0.854,0.122
0.825,-0.171,0.504,-3.540,-2.319,0.061
0.826,-0.176,0.510,-2.869,-3.906,0.549
0.827,-0.178,0.517,-2.686,-5.859,0.671
0.825,-0.178,0.525,-2.441,-7.019,0.977
0.823,-0.176,0.533,-1.953,-7.568,1.282
0.821,-0.175,0.536,-0.488,-7.507,1.892
0.821,-0.171,0.538,0.793,-6.775,2.625
0.823,-0.166,0.539,0.793,-5.493,2.808

0.781,-0.158,1.192,13.855,38.818,5.676
0.844,-0.125,1.399,21.973,65.063,9.766
0.848,-0.105,1.621,35.828,93.872,15.625
0.832,-0.188,1.797,57.190,138.000,19.653
0.737,-0.233,1.945,67.261,217.407,23.804
0.646,-0.261,2.072,68.054,307.495,35.583
0.447,-0.354,2.097,86.975,410.461,53.955
0.276,-0.375,1.982,110.657,533.203,78.979
0.155,-0.334,1.636,140.503,657.349,108.154
-0.058,-0.239,1.126,178.284,768.127,134.277
-0.364,-0.051,0.508,202.515,845.032,159.119
-0.389,0.236,-0.111,216.675,885.864,183.289
-0.359,0.429,-0.687,229.553,888.306,191.650
-0.388,0.537,-1.151,230.164,850.403,187.683
-0.403,0.642,-1.585,214.050,779.724,177.368
-0.393,0.711,-1.942,187.073,671.936,159.973
-0.265,0.644,-2.153,139.526,527.710,131.775
-0.217,0.455,-2.118,59.692,371.887,96.802
-0.193,0.252,-1.937,-37.170,235.474,68.542
-0.153,0.104,-1.710,-107.117,124.512,55.481
-0.066,-0.009,-1.500,-128.174,40.344,54.932
0.014,-0.052,-1.338,-127.014,-15.076,61.035
0.037,-0.024,-1.231,-127.869,-47.913,69.641
0.077,0.045,-1.161,-126.343,-70.190,76.721
0.115,0.086,-1.111,-115.356,-84.290,76.660
0.153,0.095,-1.066,-101.746,-89.417,70.007
0.199,0.101,-1.018,-92.163,-87.830,60.486
0.243,0.102,-0.977,-81.543,-80.750,49.133
0.296,0.113,-0.948,-70.374,-70.679,38.452
0.346,0.131,-0.936,-56.763,-61.096,27.893
0.378,0.148,-0.938,-39.429,-54.871,16.418
0.408,0.155,-0.947,-20.752,-53.101,4.333
0.446,0.159,-0.953,-5.249,-56.030,-5.798
0.483,0.159,-0.956,5.310,-63.904,-14.526
0.509,0.155,-0.947,10.803,-75.500,-21.118
0.537,0.170,-0.928,12.512,-88.867,-26.245
0.573,0.203,-0.893,17.395,-102.905,-31.677
0.588,0.226,-0.860,29.663,-116.516,-39.490
0.592,0.225,-0.834,42.236,-126.587,-51.025
0.607,0.185,-0.816,44.800,-133.728,-64.697
0.649,0.123,-0.805,37.170,-138.855,-78.552
0.645,0.053,-0.778,27.161,-144.531,-89.600
0.627,0.000,-0.739,20.203,-151.550,-94.910
0.631,-0.024,-0.701,18.616,-158.264,-95.459
0.658,-0.066,-0.674,22.461,-164.734,-93.994
0.692,-0.109,-0.648,18.127,-172.119,-90.698
0.724,-0.131,-0.615,2.747,-178.406,-85.327
0.731,-0.142,-0.570,-10.132,-184.509,-78.796
0.738,-0.137,-0.523,-14.954,-189.758,-71.716
0.752,-0.124,-0.480,-12.451,-193.176,-64.270
0.768,-0.103,-0.438,-6.653,-195.374,-58.533
0.799,-0.090,-0.404,-1.038,-196.472,-56.641
0.833,-0.097,-0.375,4.395,-197.571,-58.472
0.867,-0.124,-0.339,8.057,-199.463,-63.110
0.896,-0.178,-0.306,8.850,-202.271,-67.505
0.892,-0.213,-0.255,4.333,-204.041,-68.359
0.900,-0.220,-0.209,-4.272,-204.590,-65.796
0.922,-0.219,-0.161,-14.832,-203.979,-60.242
0.924,-0.211,-0.109,-22.522,-203.674,-51.758
0.912,-0.184,-0.054,-22.827,-203.308,-42.542
0.902,-0.154,-0.004,-16.479,-202.209,-35.583
0.884,-0.144,0.039,-7.690,-200.867,-31.250
0.869,-0.159,0.079,-3.906,-199.036,-28.687
0.884,-0.157,0.113,-10.620,-196.533,-25.085
0.902,-0.169,0.146,-20.325,-191.772,-21.729
0.938,-0.177,0.173,-26.489,-186.035,-20.508
0.974,-0.198,0.202,-28.259,-180.664,-20.264
1.038,-0.212,0.226,-27.588,-175.842,-20.264
1.046,-0.242,0.254,-24.963,-169.983,-22.156
0.992,-0.280,0.296,-27.222,-162.964,-26.306
0.949,-0.283,0.337,-42.664,-155.334,-26.184
0.938,-0.265,0.375,-58.472,-147.095,-20.752
0.943,-0.249,0.409,-61.401,-138.184,-14.832
0.947,-0.247,0.436,-53.345,-130.554,-11.353
0.946,-0.249,0.459,-43.457,-123.474,-9.644
0.939,-0.247,0.479,-38.086,-115.723,-8.057
0.930,-0.237,0.496,-36.743,-107.727,-6.226
0.918,-0.219,0.509,-35.950,-99.731,-4.211
0.906,-0.199,0.521,-33.203,-91.553,-2.502
0.900,-0.188,0.526,-28.137,-83.374,-2.197
0.892,-0.183,0.526,-22.705,-74.829,-2.808
0.885,-0.185,0.521,-18.738,-66.345,-4.211
0.886,-0.189,0.511,-17.151,-57.495,-5.615
0.886,-0.194,0.501,-18.982,-48.401,-6.409
0.879,-0.199,0.492,-22.339,-40.649,-6.226
0.871,-0.204,0.484,-24.902,-35.156,-6.104
0.872,-0.209,0.478,-25.146,-31.433,-6.042
0.873,-0.215,0.479,-24.231,-29.724,-6.165
0.870,-0.223,0.482,-22.217,-29.297,-5.920
0.873,-0.235,0.489,-20.447,-30.334,-5.310
0.871,-0.239,0.497,-19.043,-31.677,-4.456
0.865,-0.236,0.503,-18.188,-32.532,-2.930
0.860,-0.230,0.509,-17.212,-32.532,-1.404
0.857,-0.228,0.513,-15.808,-32.227,-0.366
0.856,-0.225,0.516,-14.404,-31.372,0.671
0.852,-0.219,0.518,-14.587,-29.541,1.526
0.848,-0.212,0.521,-15.503,-27.161,2.014
0.843,-0.203,0.524,-15.869,-23.865,2.075
0.838,-0.194,0.527,-15.747,-20.386,2.258
0.833,-0.187,0.528,-14.893,-17.090,2.197
0.829,-0.181,0.525,-13.672,-14.282,1.953
0.829,-0.182,0.521,-11.963,-11.841,1.404
0.828,-0.185,0.516,-10.620,-10.315,0.854
0.828,-0.185,0.515,-10.437,-9.460,0.793
0.826,-0.183,0.514,-9.705,-9.644,0.732
0.825,-0.182,0.514,-7.812,-10.559,0.671
0.823,-0.181,0.513,-5.737,-11.597,0.793
0.823,-0.184,0.510,-4.150,-12.512,1.160
0.825,-0.184,0.512,-4.944,-13.733,1.282
0.825,-0.182,0.518,-7.446,-14.648,0.732
0.827,-0.185,0.528,-9.705,-15.442,-0.244
0.820,-0.187,0.536,-11.108,-15.747,-0.916
0.817,-0.191,0.545,-11.353,-15.564,-1.038
0.816,-0.194,0.549,-10.864,-15.137,-0.977
0.815,-0.195,0.557,-10.864,-14.099,-0.793
0.813,-0.192,0.562,-10.864,-12.512,-0.549
0.814,-0.193,0.565,-9.949,-10.925,-0.305
0.810,-0.190,0.565,-8.911,-9.399,-0.122
0.808,-0.186,0.564,-7.996,-7.629,0.671

0.846,-0.184,1.133,2.747,10.376,5.432
0.860,-0.176,1.378,4.395,26.611,7.263
0.871,-0.185,1.594,10.559,67.810,6.042
0.827,-0.207,1.814,25.146,135.864,3.357
0.759,-0.267,1.973,58.472,221.191,8.789
0.672,-0.359,2.041,100.342,313.232,25.146
0.540,-0.416,1.970,126.160,419.922,49.744
0.341,-0.401,1.736,140.137,532.410,78.979
0.381,-0.286,1.324,160.095,632.263,105.896
0.144,-0.227,0.954,190.613,696.472,124.084
0.036,-0.100,0.560,208.069,730.286,145.752
0.022,0.079,0.208,208.435,747.925,171.509
-0.008,0.166,-0.183,207.275,748.657,185.181
-0.071,0.303,-0.599,193.970,738.098,190.247
-0.107,0.414,-1.051,173.523,706.604,190.430
-0.129,0.532,-1.485,143.372,642.822,178.650
-0.111,0.584,-1.763,102.295,540.588,155.640
-0.078,0.539,-1.838,54.871,420.349,125.610
-0.007,0.411,-1.763,2.441,299.011,94.177
0.041,0.243,-1.594,-44.067,193.909,69.031
0.057,0.117,-1.409,-70.618,112.366,55.847
0.097,0.061,-1.266,-77.332,56.580,54.199
0.169,0.034,-1.199,-74.402,22.766,55.969
0.167,0.030,-1.163,-74.097,2.380,57.678
0.171,0.055,-1.144,-76.965,-10.925,59.631
0.200,0.078,-1.137,-75.684,-21.912,59.387
0.205,0.083,-1.124,-73.242,-32.227,56.458
0.217,0.119,-1.098,-76.904,-41.321,51.697
0.253,0.151,-1.072,-77.087,-49.744,45.349
0.292,0.177,-1.050,-69.519,-57.556,36.133
0.316,0.197,-1.035,-57.129,-65.857,25.085
0.335,0.216,-1.021,-43.823,-75.562,13.977
0.360,0.233,-1.000,-30.640,-87.158,3.418
0.405,0.228,-0.978,-17.883,-99.792,-7.019
0.445,0.214,-0.955,-9.644,-113.770,-17.883
0.458,0.205,-0.922,-6.165,-127.808,-26.489
0.485,0.213,-0.894,-2.930,-140.564,-33.752
0.516,0.220,-0.867,5.005,-153.442,-42.542
0.554,0.217,-0.830,19.531,-167.664,-54.443
0.600,0.174,-0.792,34.607,-182.495,-68.970
0.641,0.083,-0.750,39.124,-197.144,-83.435
0.679,-0.006,-0.703,25.513,-210.205,-92.163
0.718,-0.070,-0.642,0.793,-222.107,-92.712
0.746,-0.120,-0.574,-18.921,-234.680,-88.074
0.761,-0.138,-0.503,-29.663,-246.277,-80.139
0.779,-0.137,-0.433,-32.227,-254.883,-70.984
0.793,-0.129,-0.361,-30.090,-260.620,-63.110
0.815,-0.119,-0.290,-23.865,-264.404,-57.434
0.833,-0.104,-0.224,-12.207,-265.991,-53.955
0.832,-0.085,-0.159,2.747,-264.893,-52.795
0.829,-0.068,-0.102,19.348,-259.888,-54.443
0.839,-0.072,-0.061,35.889,-251.404,-59.509
0.865,-0.107,-0.029,50.903,-240.234,-67.261
0.893,-0.153,0.004,58.105,-228.699,-73.669
0.933,-0.217,0.041,55.176,-218.445,-76.294
0.978,-0.294,0.083,40.405,-210.266,-73.608
0.998,-0.350,0.132,12.390,-204.041,-64.148
0.981,-0.351,0.189,-18.860,-197.937,-48.706
0.960,-0.310,0.241,-38.086,-190.796,-31.128
0.951,-0.255,0.282,-38.757,-183.350,-15.442
0.953,-0.212,0.310,-27.466,-174.988,-4.639
0.952,-0.177,0.328,-17.334,-166.748,0.854
0.952,-0.146,0.343,-16.602,-157.898,3.174
0.953,-0.119,0.361,-23.437,-149.048,2.747
0.953,-0.095,0.385,-31.860,-141.602,0.488
0.943,-0.089,0.409,-35.339,-135.193,-2.808
0.935,-0.102,0.428,-34.668,-130.432,-6.531
0.921,-0.112,0.443,-34.424,-125.793,-8.484
0.910,-0.111,0.454,-35.278,-119.629,-9.094
0.897,-0.107,0.459,-33.997,-112.305,-9.338
0.888,-0.108,0.454,-30.273,-104.309,-10.010
0.886,-0.119,0.431,-26.245,-95.398,-10.864
0.880,-0.130,0.406,-26.550,-85.266,-11.841
0.870,-0.125,0.391,-32.837,-74.890,-12.817
0.853,-0.120,0.386,-38.635,-67.749,-14.099
0.851,-0.131,0.385,-37.598,-66.223,-16.541
0.852,-0.156,0.390,-31.799,-69.580,-19.104
0.857,-0.174,0.407,-28.442,-76.843,-20.386
0.857,-0.191,0.435,-28.931,-87.158,-20.874
0.857,-0.206,0.472,-32.471,-98.694,-21.118
0.846,-0.219,0.508,-36.987,-109.924,-20.752
0.831,-0.221,0.541,-40.222,-118.896,-19.287
0.812,-0.215,0.577,-42.297,-124.573,-16.541
0.800,-0.204,0.617,-42.542,-127.014,-12.878
0.786,-0.194,0.661,-40.466,-127.075,-9.216
0.775,-0.185,0.695,-37.354,-124.329,-6.104
0.766,-0.171,0.724,-36.011,-118.225,-4.028
0.753,-0.151,0.756,-37.659,-109.070,-2.625
0.741,-0.141,0.785,-38.208,-98.450,-3.052
0.731,-0.139,0.803,-36.438,-86.792,-4.700
0.724,-0.146,0.816,-32.898,-74.951,-6.287
0.712,-0.144,0.826,-30.701,-63.477,-6.897
0.702,-0.139,0.826,-28.320,-52.856,-6.348
0.698,-0.134,0.820,-24.414,-43.213,-4.944
0.696,-0.133,0.802,-19.165,-34.180,-4.089
0.695,-0.131,0.781,-14.832,-26.428,-3.845
0.694,-0.130,0.765,-11.475,-20.447,-3.723
0.693,-0.136,0.755,-8.667,-16.052,-3.784
0.699,-0.138,0.750,-7.568,-13.184,-3.906
0.696,-0.143,0.750,-7.996,-11.108,-4.089
0.690,-0.143,0.748,-8.911,-9.216,-3.967
0.685,-0.139,0.740,-9.583,-7.202,-3.357
0.686,-0.137,0.734,-10.254,-4.700,-2.258
0.689,-0.136,0.732,-10.803,-2.563,-1.526
0.684,-0.136,0.722,-10.681,-0.916,-1.282
0.678,-0.133,0.713,-10.010,0.671,-0.977
0.685,-0.135,0.706,-8.240,1.892,-0.488
0.695,-0.141,0.706,-6.042,2.991,-0.183
0.688,-0.135,0.713,-6.470,4.822,0.183
0.681,-0.125,0.714,-6.775,6.836,0.610
0.684,-0.122,0.709,-3.479,8.545,0.549
0.689,-0.125,0.700,-0.610,9.827,0.610
0.693,-0.128,0.689,-0.427,10.437,0.427
0.695,-0.128,0.683,-2.319,10.315,-0.061
0.694,-0.125,0.681,-5.127,9.705,-0.610
0.695,-0.130,0.677,-6.042,8.179,-1.038
0.693,-0.133,0.672,-5.615,6.836,-1.160
0.691,-0.134,0.662,-4.761,5.676,-1.038
0.691,-0.140,0.654,-2.319,4.211,-0.732

0.706,-0.115,1.364,54.810,68.176,7.507
0.721,-0.087,1.495,69.092,101.807,13.794
0.662,-0.037,1.670,80.505,142.944,20.081
0.733,-0.028,1.875,92.773,180.908,28.015
0.728,-0.084,2.077,102.417,228.088,34.912
0.559,-0.134,2.211,90.515,303.162,40.222
0.344,-0.188,2.178,76.843,413.025,46.021
0.230,-0.181,1.895,78.552,537.048,53.711
0.185,-0.290,1.536,100.891,636.719,61.340
0.107,-0.318,1.203,108.704,698.059,73.364
0.005,-0.291,0.890,93.994,731.079,93.567
-0.044,-0.248,0.603,88.928,749.084,113.403
-0.073,-0.183,0.303,89.600,754.578,132.568
-0.221,-0.105,-0.058,99.304,767.395,148.499
-0.328,0.013,-0.516,114.258,782.837,161.011
-0.412,0.199,-1.030,135.315,780.823,170.288
-0.477,0.419,-1.488,155.273,743.408,171.387
-0.499,0.587,-1.919,159.973,660.400,165.405
-0.498,0.622,-2.235,130.188,529.724,148.010
-0.383,0.601,-2.267,54.138,368.286,113.770
-0.298,0.406,-1.992,-32.043,209.961,69.214
-0.202,0.165,-1.638,-94.543,88.257,31.189
-0.108,-0.025,-1.372,-122.437,14.526,11.292
-0.052,-0.119,-1.203,-120.544,-23.804,9.216
0.023,-0.110,-1.115,-107.178,-43.518,20.569
0.088,-0.045,-1.067,-92.468,-53.467,33.020
0.124,-0.005,-1.023,-79.163,-54.199,36.011
0.153,0.008,-1.010,-69.519,-43.945,30.518
0.187,0.012,-1.032,-59.753,-29.053,22.339
0.238,0.015,-1.069,-45.166,-18.677,14.709
0.282,0.026,-1.089,-27.710,-16.846,8.179
0.319,0.035,-1.089,-13.306,-22.217,2.441
0.360,0.052,-1.083,-6.348,-32.410,-1.465
0.394,0.061,-1.078,-3.845,-45.654,-5.493
0.430,0.062,-1.072,-2.747,-61.951,-10.132
0.473,0.071,-1.054,-3.784,-81.360,-13.611
0.519,0.076,-1.022,-7.019,-102.356,-15.930
0.550,0.068,-0.987,-11.902,-123.108,-17.822
0.583,0.059,-0.948,-19.653,-141.602,-19.104
0.614,0.045,-0.910,-27.283,-156.799,-19.470
0.630,0.027,-0.871,-32.288,-170.654,-18.799
0.629,0.013,-0.827,-33.447,-183.594,-18.066
0.656,-0.004,-0.783,-29.846,-195.984,-18.311
0.677,-0.022,-0.740,-23.865,-208.496,-18.372
0.669,-0.019,-0.675,-19.897,-221.375,-18.372
0.669,-0.015,-0.611,-17.944,-230.286,-19.348
0.689,-0.016,-0.552,-16.907,-235.046,-21.362
0.704,-0.022,-0.510,-17.883,-237.366,-22.461
0.713,-0.032,-0.481,-22.888,-238.586,-21.790
0.738,-0.031,-0.452,-31.250,-239.685,-20.752
0.766,-0.042,-0.417,-36.499,-242.737,-20.508
0.790,-0.051,-0.369,-38.635,-247.070,-21.545
0.816,-0.049,-0.316,-38.757,-251.038,-23.315
0.832,-0.065,-0.260,-33.386,-253.479,-25.696
0.850,-0.087,-0.197,-26.184,-254.639,-27.710
0.880,-0.108,-0.136,-18.921,-253.845,-28.625
0.882,-0.133,-0.074,-10.254,-251.221,-27.771
0.893,-0.146,-0.012,-3.601,-245.117,-24.414
0.905,-0.152,0.042,-0.916,-236.389,-19.226
0.917,-0.143,0.104,-1.465,-225.952,-13.550
0.949,-0.136,0.159,-2.197,-215.576,-8.850
0.961,-0.140,0.208,-1.831,-206.970,-5.127
0.957,-0.139,0.255,-3.113,-198.303,-2.075
0.957,-0.134,0.297,-4.211,-188.232,-0.183
0.951,-0.127,0.337,-2.563,-177.002,2.136
0.956,-0.124,0.375,1.404,-164.673,3.967
0.968,-0.125,0.406,5.005,-149.963,5.798
0.964,-0.107,0.430,3.296,-133.118,8.179
0.953,-0.077,0.445,-1.709,-115.601,10.803
0.953,-0.042,0.445,-6.287,-97.290,12.939
0.956,-0.022,0.431,-8.911,-79.407,12.634
0.960,-0.020,0.409,-9.033,-63.904,9.521
0.958,-0.033,0.389,-9.827,-52.917,4.761
0.956,-0.053,0.378,-10.254,-45.898,0.366
0.960,-0.069,0.375,-9.460,-42.297,-1.587
0.957,-0.084,0.375,-6.653,-41.809,-1.770
0.962,-0.089,0.376,-3.723,-42.725,-1.282
0.961,-0.085,0.382,-3.479,-44.312,-0.366
0.950,-0.077,0.387,-4.150,-45.898,1.160
0.941,-0.062,0.387,-4.333,-46.692,1.709
0.933,-0.063,0.382,-2.380,-45.898,0.488
0.934,-0.074,0.372,-1.099,-44.250,-0.977
0.930,-0.083,0.367,-3.601,-42.542,-1.831
0.927,-0.086,0.372,-8.606,-42.236,-2.563
0.922,-0.090,0.376,-11.169,-43.701,-3.174
0.919,-0.098,0.381,-10.498,-45.349,-4.395
0.913,-0.101,0.382,-8.423,-46.631,-5.676
0.898,-0.103,0.386,-6.226,-47.852,-5.615
0.896,-0.096,0.392,-4.761,-48.645,-5.066
0.894,-0.090,0.399,-1.709,-49.866,-4.639
0.890,-0.085,0.406,1.465,-52.124,-5.188
0.885,-0.077,0.416,2.319,-54.932,-5.859
0.880,-0.070,0.430,2.197,-58.777,-7.019
0.871,-0.067,0.446,3.357,-63.477,-9.033
0.861,-0.069,0.460,5.493,-68.970,-10.803
0.853,-0.069,0.474,8.301,-74.890,-11.475
0.854,-0.082,0.488,11.475,-81.421,-12.268
0.874,-0.114,0.506,10.376,-86.853,-13.794
0.874,-0.139,0.542,-1.343,-89.111,-14.832
0.863,-0.147,0.585,-19.287,-88.196,-14.709
0.847,-0.151,0.622,-31.860,-83.984,-14.038
0.830,-0.157,0.647,-35.339,-77.026,-12.390
0.823,-0.159,0.667,-33.203,-68.054,-10.010
0.819,-0.156,0.677,-28.015,-57.434,-7.141
0.814,-0.155,0.677,-21.484,-47.119,-5.249
0.814,-0.157,0.666,-15.991,-36.621,-3.967
0.810,-0.150,0.653,-14.160,-25.574,-2.869
0.801,-0.139,0.639,-13.550,-15.564,-1.892
0.796,-0.134,0.620,-9.521,-8.728,-1.221
0.791,-0.133,0.598,-2.991,-4.639,-0.854
0.794,-0.132,0.584,1.892,-3.601,-0.366
0.801,-0.135,0.573,5.005,-4.883,0.183
0.801,-0.138,0.568,4.822,-6.470,0.305
0.790,-0.130,0.567,1.648,-7.324,0.488
0.790,-0.130,0.565,0.488,-7.202,0.488
0.791,-0.130,0.563,-0.305,-6.836,0.427
0.790,-0.126,0.567,-2.563,-5.981,0.061
0.789,-0.123,0.574,-4.944,-4.822,-0.183
0.790,-0.125,0.583,-5.127,-4.517,-0.549

0.736,-0.051,1.417,8.545,-5.554,11.169
0.731,-0.028,1.674,27.161,4.517,17.517
0.759,0.030,1.951,30.457,39.490,21.362
0.633,0.081,2.221,37.781,114.868,19.531
0.494,-0.021,2.356,67.993,219.727,16.724
0.363,-0.161,2.292,95.276,352.478,19.043
0.199,-0.209,2.044,97.290,492.432,32.898
0.056,-0.208,1.701,111.023,615.845,53.650
0.030,-0.149,1.230,150.208,716.309,76.233
-0.007,-0.110,0.763,188.477,768.066,94.971
-0.073,-0.038,0.355,206.604,777.283,111.450
-0.166,0.052,0.021,204.895,782.104,129.944
-0.149,0.135,-0.312,193.848,778.748,146.423
-0.155,0.215,-0.664,181.274,761.902,159.119
-0.170,0.292,-0.984,164.795,726.257,166.260
-0.201,0.430,-1.278,143.799,664.185,166.321
-0.233,0.520,-1.525,123.779,582.031,155.945
-0.238,0.551,-1.728,97.900,485.168,136.536
-0.222,0.529,-1.814,52.612,379.333,111.511
-0.160,0.424,-1.814,-5.066,278.137,81.421
-0.113,0.288,-1.734,-62.256,186.279,53.650
-0.066,0.160,-1.611,-101.440,106.995,34.058
-0.020,0.055,-1.499,-113.098,44.434,22.949
0.029,0.002,-1.406,-109.314,-2.197,18.860
0.086,-0.012,-1.331,-103.699,-37.598,20.081
0.129,-0.011,-1.259,-99.060,-64.148,22.278
0.160,-0.014,-1.191,-92.102,-82.458,21.667
0.204,-0.001,-1.117,-85.388,-93.506,19.287
0.272,-0.016,-1.055,-80.078,-99.426,16.113
0.303,-0.008,-0.995,-78.979,-105.652,16.663
0.352,0.041,-0.940,-77.454,-111.511,17.639
0.408,0.077,-0.898,-62.134,-115.906,14.038
0.460,0.098,-0.867,-37.842,-119.873,7.019
0.513,0.118,-0.849,-17.578,-123.657,0.366
0.562,0.124,-0.841,-4.333,-128.479,-4.578
0.607,0.119,-0.835,1.099,-135.437,-9.155
0.660,0.113,-0.825,1.831,-144.043,-14.221
0.707,0.089,-0.805,1.831,-154.907,-20.142
0.720,0.059,-0.767,0.732,-170.349,-23.804
0.741,0.027,-0.718,-3.418,-187.500,-26.306
0.754,-0.003,-0.660,-9.338,-203.552,-27.649
0.765,-0.023,-0.604,-15.625,-215.942,-26.611
0.770,-0.028,-0.549,-21.057,-227.173,-23.804
0.768,-0.013,-0.493,-22.583,-238.037,-20.874
0.770,0.000,-0.428,-19.165,-246.643,-19.165
0.780,0.003,-0.367,-14.282,-252.014,-18.677
0.783,0.016,-0.314,-14.160,-253.601,-17.700
0.776,0.040,-0.265,-18.250,-251.343,-16.907
0.787,0.071,-0.221,-19.775,-247.314,-18.433
0.803,0.088,-0.177,-11.963,-243.042,-23.499
0.816,0.071,-0.137,3.540,-238.831,-32.532
0.824,0.037,-0.096,19.165,-233.337,-42.114
0.833,0.008,-0.053,29.297,-227.356,-50.842
0.872,-0.050,-0.020,37.354,-221.436,-58.350
0.916,-0.134,0.002,40.955,-218.018,-62.500
0.882,-0.187,0.044,33.691,-216.919,-61.340
0.890,-0.220,0.063,20.386,-218.323,-57.495
0.934,-0.235,0.087,3.418,-219.238,-50.659
0.976,-0.255,0.126,-13.000,-219.299,-39.795
0.949,-0.258,0.196,-28.259,-220.337,-27.588
0.922,-0.221,0.264,-41.199,-224.304,-14.587
0.900,-0.162,0.333,-47.668,-228.455,-2.747
0.884,-0.107,0.396,-45.715,-230.225,5.127
0.864,-0.060,0.454,-38.635,-229.431,8.545
0.851,-0.025,0.511,-31.250,-225.647,8.301
0.840,-0.006,0.563,-26.123,-219.238,5.554
0.847,-0.001,0.621,-24.658,-208.801,1.282
0.848,-0.012,0.682,-27.466,-194.275,-3.479
0.851,-0.037,0.741,-32.288,-177.734,-9.338
0.843,-0.066,0.788,-36.194,-159.180,-14.099
0.838,-0.094,0.821,-36.316,-140.015,-16.235
0.837,-0.121,0.840,-33.386,-120.239,-15.381
0.836,-0.128,0.854,-30.396,-100.220,-12.878
0.828,-0.121,0.856,-26.672,-80.872,-9.827
0.822,-0.112,0.838,-20.447,-61.951,-7.202
0.819,-0.104,0.808,-13.184,-44.556,-5.249
0.815,-0.098,0.770,-8.362,-29.480,-4.517
0.815,-0.101,0.729,-5.554,-18.005,-4.700
0.815,-0.106,0.695,-4.089,-9.338,-6.226
0.808,-0.107,0.669,-3.479,-3.479,-7.568
0.801,-0.114,0.645,-0.854,-0.671,-8.057
0.803,-0.130,0.620,4.272,0.244,-7.568
0.808,-0.150,0.598,8.118,-0.122,-6.226
0.810,-0.157,0.588,6.470,-0.793,-4.333
0.809,-0.157,0.579,2.502,-1.465,-2.502
0.805,-0.153,0.578,-1.038,-1.465,-1.221
0.794,-0.136,0.583,-4.028,-0.732,0.305
0.793,-0.122,0.585,-3.418,-0.366,2.136
0.797,-0.116,0.587,-0.183,-0.488,3.174
0.797,-0.108,0.591,1.404,-0.732,3.723
0.798,-0.098,0.591,0.793,-0.854,3.540
0.793,-0.095,0.593,0.000,-0.916,2.441
0.791,-0.096,0.593,0.000,-1.099,1.343
0.794,-0.104,0.590,0.488,-1.709,0.427
0.795,-0.109,0.589,1.038,-3.052,0.183
0.794,-0.112,0.589,0.549,-4.456,0.427
0.792,-0.112,0.588,-0.305,-5.737,0.732
0.792,-0.112,0.587,-0.671,-6.653,0.793
0.793,-0.110,0.588,-0.977,-7.263,0.671
0.792,-0.110,0.589,-1.587,-7.812,0.671
0.795,-0.115,0.589,-2.014,-8.240,0.488
0.793,-0.115,0.593,-4.150,-7.446,0.244
0.790,-0.109,0.598,-7.446,-5.737,0.122
0.783,-0.105,0.601,-9.033,-3.540,-0.183
0.783,-0.106,0.600,-7.874,-2.075,-0.366
0.787,-0.113,0.595,-5.859,-1.282,-0.366
0.785,-0.114,0.593,-5.005,-0.427,-0.244
0.783,-0.113,0.592,-5.188,-0.061,0.061
0.783,-0.112,0.589,-4.272,-0.183,0.488
0.782,-0.109,0.587,-2.563,-0.854,0.916
0.781,-0.106,0.583,-0.427,-1.770,1.648
0.784,-0.105,0.580,1.343,-2.808,2.136
0.785,-0.102,0.586,0.793,-3.662,2.136
0.779,-0.097,0.590,-0.916,-3.967,1.404
0.774,-0.095,0.591,-1.343,-3.601,0.549
0.776,-0.101,0.585,-0.061,-3.174,0.244
0.777,-0.107,0.583,0.427,-3.052,0.122
0.777,-0.106,0.584,-0.427,-3.540,0.244
0.776,-0.109,0.585,-1.221,-4.456,0.122

0.813,-0.011,1.500,44.983,35.156,10.498
0.836,0.012,1.738,58.533,60.730,15.869
0.779,0.010,1.986,64.758,107.117,20.691
0.700,-0.067,2.162,68.604,178.650,20.691
0.559,-0.189,2.188,62.561,278.198,19.165
0.349,-0.260,2.032,50.659,401.245,24.963
0.276,-0.237,1.816,51.636,518.982,41.321
0.230,-0.282,1.516,86.060,608.887,66.040
0.130,-0.233,1.084,121.704,685.303,91.858
-0.031,-0.138,0.633,133.057,738.525,111.328
-0.164,0.013,0.217,132.446,765.015,127.258
-0.228,0.144,-0.154,136.353,777.588,139.954
-0.233,0.244,-0.519,136.597,772.095,145.752
-0.285,0.266,-0.875,126.648,751.221,143.188
-0.395,0.270,-1.191,105.774,721.558,134.521
-0.448,0.314,-1.471,85.693,676.208,126.526
-0.407,0.375,-1.779,87.830,607.300,119.019
-0.385,0.406,-2.009,93.140,503.296,107.239
-0.372,0.388,-2.117,64.026,373.962,93.018
-0.325,0.365,-2.057,1.160,237.305,76.111
-0.197,0.284,-1.849,-59.448,113.586,54.199
-0.067,0.124,-1.603,-94.604,19.348,29.785
0.025,-0.015,-1.407,-113.220,-43.945,14.099
0.114,-0.040,-1.281,-120.300,-87.280,12.817
0.212,-0.011,-1.171,-110.168,-116.394,13.367
0.298,-0.076,-1.103,-94.971,-128.418,8.118
0.339,-0.136,-1.055,-93.933,-132.202,9.033
0.368,-0.119,-0.981,-91.125,-135.010,20.630
0.411,-0.033,-0.898,-70.496,-133.911,32.410
0.455,0.048,-0.830,-43.945,-124.939,35.583
0.505,0.118,-0.784,-25.391,-109.070,30.640
0.557,0.155,-0.778,-9.216,-91.919,20.447
0.597,0.182,-0.806,6.409,-79.529,8.240
0.595,0.209,-0.833,17.578,-73.486,-3.479
0.588,0.222,-0.860,23.743,-71.472,-15.259
0.584,0.202,-0.891,27.161,-72.998,-27.588
0.578,0.171,-0.908,27.527,-79.956,-39.185
0.584,0.143,-0.907,28.992,-94.055,-48.889
0.578,0.112,-0.892,34.058,-115.173,-56.519
0.576,0.093,-0.853,35.522,-141.052,-60.059
0.607,0.065,-0.797,31.128,-167.786,-61.462
0.653,0.004,-0.740,19.104,-193.481,-61.951
0.665,-0.045,-0.682,-5.798,-215.088,-58.228
0.660,-0.053,-0.623,-36.926,-230.408,-50.293
0.656,-0.040,-0.562,-56.946,-241.882,-42.236
0.667,-0.026,-0.499,-58.228,-251.343,-36.011
0.698,-0.003,-0.434,-48.096,-259.705,-33.081
0.744,0.005,-0.375,-32.349,-267.822,-34.302
0.791,-0.001,-0.316,-17.944,-274.231,-40.283
0.826,-0.018,-0.252,-6.165,-278.992,-49.072
0.839,-0.056,-0.187,7.019,-282.410,-58.411
0.850,-0.107,-0.129,21.057,-284.058,-65.918
0.860,-0.140,-0.065,29.846,-282.776,-68.298
0.872,-0.155,-0.001,34.241,-279.358,-66.040
0.881,-0.155,0.062,33.875,-275.208,-60.730
0.899,-0.153,0.122,29.602,-270.935,-53.955
0.916,-0.152,0.179,19.958,-266.479,-47.913
0.921,-0.160,0.237,5.615,-261.841,-42.297
0.911,-0.158,0.300,-10.620,-256.592,-36.804
0.907,-0.154,0.362,-24.902,-250.305,-32.104
0.920,-0.165,0.425,-31.982,-242.310,-28.809
0.928,-0.180,0.491,-36.377,-232.117,-26.123
0.930,-0.192,0.548,-40.527,-220.520,-22.583
0.931,-0.196,0.603,-44.434,-207.581,-17.883
0.919,-0.188,0.654,-46.692,-191.589,-12.146
0.910,-0.167,0.687,-47.363,-173.218,-6.836
0.899,-0.141,0.709,-44.434,-152.893,-2.869
0.892,-0.122,0.716,-38.025,-132.080,-1.221
0.883,-0.115,0.708,-29.053,-111.389,-1.770
0.874,-0.116,0.687,-20.447,-90.942,-3.662
0.867,-0.117,0.658,-13.123,-72.205,-6.409
0.864,-0.124,0.623,-6.470,-55.481,-8.850
0.866,-0.149,0.584,-1.038,-42.725,-10.437
0.869,-0.170,0.548,0.244,-34.119,-11.169
0.858,-0.177,0.522,-2.319,-28.992,-10.498
0.853,-0.176,0.503,-5.066,-27.466,-9.033
0.851,-0.181,0.493,-4.822,-29.236,-7.629
0.849,-0.186,0.487,-3.235,-32.593,-6.348
0.848,-0.189,0.488,-3.113,-37.109,-5.127
0.840,-0.184,0.492,-4.578,-41.565,-4.089
0.827,-0.171,0.494,-5.920,-44.861,-3.235
0.810,-0.160,0.491,-5.493,-47.119,-2.502
0.807,-0.155,0.495,-3.967,-49.072,-2.136
0.809,-0.161,0.501,-2.686,-52.124,-2.563
0.813,-0.173,0.510,-2.930,-56.519,-3.296
0.806,-0.177,0.527,-6.104,-61.646,-3.723
0.794,-0.177,0.549,-9.766,-66.650,-3.113
0.782,-0.172,0.570,-10.498,-71.045,-2.441
0.771,-0.168,0.589,-8.972,-74.097,-1.221
0.768,-0.162,0.605,-7.935,-75.439,-0.122
0.759,-0.156,0.625,-8.911,-75.867,0.793
0.751,-0.147,0.643,-11.536,-75.195,1.099
0.741,-0.140,0.663,-13.855,-74.341,0.488
0.727,-0.134,0.682,-15.137,-72.998,-0.610
0.720,-0.130,0.701,-15.015,-71.228,-1.160
0.714,-0.130,0.720,-13.550,-69.641,-1.404
0.709,-0.135,0.738,-11.230,-67.810,-1.770
0.705,-0.139,0.751,-10.010,-65.674,-2.197
0.697,-0.141,0.762,-10.376,-61.951,-2.380
0.696,-0.143,0.775,-11.963,-57.190,-2.930
0.692,-0.143,0.789,-15.076,-51.086,-3.662
0.681,-0.145,0.802,-17.151,-43.945,-4.578
0.669,-0.151,0.810,-16.663,-36.011,-5.554
0.662,-0.151,0.809,-14.832,-27.771,-5.310
0.661,-0.151,0.799,-12.024,-19.348,-3.479
0.662,-0.149,0.787,-9.155,-11.841,-1.770
0.661,-0.144,0.771,-6.836,-5.920,-0.916
0.658,-0.137,0.753,-4.822,-1.648,-0.061
0.660,-0.132,0.736,-2.991,1.099,0.610
0.663,-0.132,0.721,-1.526,2.747,0.916
0.661,-0.134,0.703,-0.366,3.601,0.977
0.662,-0.136,0.693,0.366,3.235,0.854
0.667,-0.140,0.686,1.099,2.075,0.488
0.667,-0.142,0.686,1.038,0.610,0.305
0.666,-0.140,0.694,-0.488,-1.038,-0.061
0.668,-0.144,0.703,-1.648,-2.625,-0.427
0.668,-0.146,0.712,-2.686,-4.028,-0.671
0.667,-0.140,0.722,-4.333,-4.272,-0.549
0.657,-0.138,0.727,-4.333,-3.601,-0.305

0.647,-0.090,1.525,36.438,52.185,2.563
0.700,-0.075,1.732,55.176,85.693,8.789
0.666,-0.152,1.869,90.210,143.433,11.841
0.497,-0.225,1.904,108.032,233.765,19.714
0.440,-0.218,1.930,108.704,325.439,36.072
0.472,-0.327,1.878,122.742,401.672,57.312
0.398,-0.402,1.767,122.314,477.417,79.102
0.261,-0.412,1.566,102.234,558.044,102.722
0.125,-0.349,1.282,105.835,638.123,129.150
-0.049,-0.263,0.964,137.695,703.491,161.560
-0.053,-0.153,0.574,172.546,746.155,195.862
-0.013,0.003,0.147,177.429,763.550,227.051
-0.110,0.186,-0.252,156.372,761.536,241.760
-0.168,0.408,-0.656,128.052,742.859,238.403
-0.193,0.552,-1.038,122.681,709.839,217.651
-0.102,0.564,-1.412,128.479,653.259,177.979
0.033,0.486,-1.702,109.497,562.744,139.465
0.025,0.360,-1.843,57.190,447.815,107.605
0.016,0.259,-1.836,-12.573,326.599,85.388
0.029,0.175,-1.712,-67.017,214.233,73.364
0.081,0.096,-1.535,-84.961,118.896,69.092
0.155,0.049,-1.374,-86.731,50.903,70.862
0.212,0.085,-1.249,-92.346,7.751,75.256
0.254,0.137,-1.140,-93.933,-20.630,75.684
0.291,0.186,-1.070,-86.060,-38.391,70.068
0.321,0.232,-1.019,-77.515,-48.767,59.692
0.358,0.260,-0.978,-69.702,-54.871,45.776
0.389,0.264,-0.948,-59.631,-57.495,29.419
0.402,0.243,-0.919,-49.500,-57.739,12.512
0.423,0.213,-0.893,-39.978,-55.603,-1.404
0.454,0.182,-0.873,-27.954,-53.101,-12.512
0.487,0.144,-0.864,-13.916,-51.392,-21.484
0.523,0.118,-0.871,-3.113,-51.270,-27.954
0.553,0.102,-0.888,3.235,-53.772,-31.555
0.575,0.103,-0.906,5.737,-59.937,-33.142
0.605,0.125,-0.942,7.568,-69.946,-35.400
0.590,0.137,-0.960,12.329,-86.975,-39.917
0.578,0.140,-0.949,16.113,-107.788,-45.471
0.585,0.143,-0.917,17.395,-129.944,-51.514
0.611,0.122,-0.872,18.372,-153.259,-58.533
0.633,0.093,-0.812,18.188,-177.124,-66.223
0.636,0.060,-0.747,15.686,-200.562,-72.510
0.659,0.012,-0.682,9.399,-219.971,-77.942
0.722,-0.038,-0.623,-4.089,-236.023,-80.811
0.761,-0.065,-0.554,-22.766,-250.671,-79.346
0.785,-0.061,-0.482,-38.940,-264.771,-76.599
0.790,-0.064,-0.401,-47.729,-277.344,-75.623
0.776,-0.075,-0.320,-52.490,-287.842,-73.669
0.789,-0.079,-0.240,-56.152,-294.861,-70.618
0.812,-0.093,-0.171,-54.688,-299.255,-66.284
0.828,-0.116,-0.099,-48.340,-302.612,-60.364
0.837,-0.123,-0.024,-38.940,-305.908,-52.856
0.856,-0.122,0.048,-26.428,-307.373,-45.898
0.864,-0.120,0.114,-14.771,-307.617,-39.124
0.862,-0.101,0.177,-7.935,-306.335,-32.898
0.870,-0.094,0.240,-5.676,-302.612,-29.175
0.876,-0.094,0.304,-9.033,-296.997,-26.978
0.879,-0.094,0.368,-17.639,-288.940,-25.269
0.889,-0.110,0.428,-28.320,-279.602,-22.888
0.889,-0.125,0.488,-39.185,-270.874,-19.653
0.877,-0.127,0.550,-49.622,-261.841,-15.503
0.856,-0.112,0.617,-57.434,-250.732,-10.620
0.843,-0.091,0.673,-58.105,-238.159,-6.165
0.828,-0.073,0.718,-50.903,-222.961,-2.808
0.811,-0.060,0.750,-40.161,-204.773,-1.099
0.800,-0.046,0.771,-30.457,-184.509,-0.305
0.793,-0.036,0.779,-21.851,-162.964,-0.671
0.795,-0.032,0.779,-13.855,-141.113,-2.319
0.795,-0.036,0.778,-8.911,-119.629,-5.798
0.796,-0.046,0.779,-8.850,-98.816,-10.132
0.795,-0.067,0.771,-10.498,-79.468,-14.465
0.796,-0.102,0.750,-10.864,-63.110,-17.700
0.787,-0.130,0.719,-11.841,-49.561,-19.165
0.780,-0.144,0.692,-12.268,-38.391,-18.311
0.778,-0.152,0.667,-10.620,-31.311,-16.724
0.779,-0.158,0.646,-6.653,-27.466,-14.771
0.779,-0.162,0.627,-2.869,-26.245,-13.123
0.774,-0.158,0.612,-1.343,-26.550,-11.414
0.766,-0.156,0.599,-1.099,-27.832,-9.705
0.759,-0.152,0.594,-1.587,-29.663,-8.240
0.757,-0.150,0.596,-2.319,-32.471,-7.263
0.759,-0.151,0.607,-3.479,-36.316,-6.775
0.756,-0.154,0.621,-5.493,-40.283,-6.714
0.747,-0.152,0.637,-8.789,-43.213,-6.592
0.735,-0.147,0.657,-12.024,-44.556,-5.798
0.726,-0.140,0.679,-12.695,-44.861,-4.822
0.719,-0.137,0.696,-11.047,-43.457,-4.272
0.717,-0.136,0.712,-8.789,-40.833,-3.479
0.717,-0.138,0.726,-7.202,-37.781,-3.052
0.709,-0.138,0.734,-6.226,-34.119,-2.808
0.702,-0.134,0.742,-5.920,-30.212,-2.014
0.698,-0.128,0.750,-5.005,-27.039,-1.343
0.696,-0.119,0.752,-3.723,-24.292,-0.916
0.692,-0.112,0.750,-2.197,-21.423,-0.610
0.690,-0.110,0.744,-1.160,-18.616,-0.854
0.689,-0.112,0.739,-0.610,-16.357,-1.160
