aX,aY,aZ,gX,gY,gZ
0.362,0.965,0.973,24.841,93.750,52.490
0.397,1.229,1.127,28.809,103.027,33.264
0.352,1.398,1.220,39.490,123.413,-10.864
0.276,1.521,1.221,42.297,155.396,-62.866
0.259,1.572,1.117,47.791,188.965,-117.371
0.214,1.555,0.925,65.125,212.341,-175.964
0.122,1.619,0.676,65.613,222.412,-233.643
-0.004,1.709,0.483,43.030,214.355,-293.762
-0.082,1.586,0.327,36.072,188.538,-364.807
-0.215,1.264,0.255,23.010,152.527,-433.350
-0.309,0.839,0.241,0.305,119.446,-485.046
-0.317,0.390,0.245,-23.132,89.294,-512.085
-0.301,0.015,0.286,-47.424,61.646,-522.095
-0.254,-0.244,0.342,-60.425,39.185,-518.372
-0.173,-0.471,0.462,-61.157,21.973,-510.559
-0.047,-0.764,0.605,-58.105,7.812,-509.338
0.078,-1.125,0.702,-47.668,2.686,-507.141
0.211,-1.589,0.748,-43.640,6.958,-470.581
0.396,-1.943,0.707,-32.410,18.982,-398.499
0.486,-2.194,0.576,-3.418,35.278,-317.932
0.569,-2.263,0.445,23.437,52.002,-236.755
0.626,-2.219,0.333,44.495,59.448,-157.166
0.688,-2.041,0.276,57.861,54.749,-79.163
0.693,-1.801,0.323,50.720,40.894,-9.583
0.661,-1.590,0.421,37.964,27.771,41.382
0.625,-1.394,0.491,26.611,24.719,78.796
0.643,-1.210,0.507,16.663,29.785,107.239
0.650,-1.053,0.499,8.423,35.706,126.831
0.669,-0.940,0.498,0.366,38.513,139.893
0.689,-0.852,0.520,-0.305,36.621,147.400
0.699,-0.759,0.545,4.761,34.180,152.649
0.713,-0.675,0.560,15.686,35.461,157.288
0.703,-0.616,0.565,29.114,40.100,161.621
0.685,-0.505,0.541,40.771,45.593,166.748
0.689,-0.390,0.504,51.697,48.340,171.448
0.709,-0.282,0.475,54.932,46.936,171.387
0.728,-0.203,0.458,45.593,42.297,167.358
0.750,-0.169,0.457,31.921,35.767,159.912
0.770,-0.190,0.461,18.555,29.846,151.001
0.780,-0.196,0.474,7.690,25.696,144.226
0.801,-0.157,0.489,4.211,23.010,143.127
0.813,-0.108,0.503,4.700,20.630,142.273
0.812,-0.057,0.511,3.113,21.118,140.442
0.820,-0.028,0.495,5.920,23.315,135.864
0.846,-0.019,0.475,2.625,25.635,126.648
0.840,-0.029,0.471,-5.066,28.076,117.920
0.837,-0.080,0.442,-5.737,30.457,110.596
0.829,-0.091,0.418,-8.850,33.325,110.107
0.836,-0.049,0.398,-9.277,32.776,114.929
0.853,-0.012,0.385,-7.019,31.372,116.821
0.895,0.030,0.368,-9.216,29.907,117.310
0.889,0.034,0.336,-14.587,29.785,117.188
0.849,0.051,0.351,-22.156,28.137,115.784
0.848,0.094,0.373,-18.311,23.560,115.845
0.872,0.062,0.363,-5.249,23.682,112.000
0.879,0.045,0.351,-7.568,24.414,109.680
0.870,0.063,0.352,-16.235,23.865,110.718
0.849,0.100,0.353,-13.550,22.095,112.366
0.846,0.140,0.337,-4.639,22.339,113.892
0.865,0.195,0.319,-2.747,22.461,116.516
0.859,0.244,0.321,-9.583,19.897,119.446
0.863,0.300,0.331,-16.724,17.334,118.774
0.870,0.319,0.339,-15.747,15.686,110.291
0.883,0.313,0.359,-13.733,13.977,96.741
0.882,0.299,0.392,-15.015,12.756,85.876
0.882,0.295,0.410,-17.334,15.076,79.102
0.890,0.304,0.410,-15.747,20.447,75.134
0.897,0.299,0.411,-11.780,24.841,71.716
0.905,0.312,0.422,-12.146,28.137,68.481
0.897,0.334,0.431,-13.489,33.752,66.345
0.859,0.369,0.408,-11.597,41.016,64.453
0.871,0.403,0.358,-9.583,48.401,62.439
0.876,0.410,0.315,-7.812,51.086,58.167
0.861,0.415,0.302,-9.399,48.096,52.063
0.867,0.399,0.289,-7.629,45.593,44.861
0.880,0.363,0.269,-4.822,44.067,37.964
0.890,0.334,0.253,-7.019,42.480,33.936
0.868,0.350,0.239,-10.742,40.710,33.081
0.876,0.366,0.206,-8.484,39.856,32.776
0.887,0.395,0.182,-5.249,35.950,32.471
0.868,0.410,0.176,-5.310,30.090,30.396
0.874,0.408,0.186,-6.775,23.804,26.794
0.895,0.381,0.223,-8.545,16.602,22.339
0.885,0.364,0.279,-10.437,12.451,18.311
0.913,0.343,0.302,-7.141,13.916,16.174
0.884,0.343,0.309,-5.188,20.264,17.090
0.892,0.386,0.290,-5.005,27.405,20.081
0.886,0.418,0.258,-2.319,32.349,20.752
0.885,0.443,0.229,-1.953,34.363,18.494
0.863,0.453,0.214,-4.456,33.752,14.526
0.868,0.474,0.197,-8.118,32.898,10.315
0.866,0.480,0.184,-8.301,30.640,5.615
0.866,0.469,0.175,-8.240,28.076,0.183
0.872,0.430,0.180,-10.193,25.024,-5.432
0.866,0.370,0.206,-15.381,21.912,-10.437
0.865,0.325,0.229,-21.423,21.057,-11.658
0.861,0.298,0.229,-23.376,24.353,-9.705
0.854,0.297,0.204,-21.301,29.541,-6.409
0.854,0.306,0.167,-17.029,33.569,-3.479
0.854,0.305,0.131,-14.221,33.997,-2.441
0.852,0.293,0.114,-14.282,31.311,-2.930
0.798,0.310,0.149,-13.550,26.062,-4.089
0.837,0.311,0.140,-9.033,22.095,-6.226
0.899,0.314,0.093,-9.033,24.292,-7.080
0.835,0.307,0.085,-6.897,25.879,-7.874
0.824,0.287,0.074,2.991,22.522,-9.033
0.830,0.280,0.068,9.949,19.348,-8.850
0.835,0.279,0.071,11.047,16.296,-8.728
0.833,0.275,0.075,9.766,14.038,-8.545
0.847,0.272,0.077,7.202,13.062,-8.240
0.844,0.265,0.079,4.333,12.512,-7.324
0.852,0.253,0.074,1.770,13.000,-6.714
0.857,0.239,0.063,-0.122,13.123,-6.287
0.827,0.233,0.070,-2.075,12.146,-4.700
0.819,0.258,0.078,-1.526,11.047,-2.625
0.904,0.258,0.050,3.906,10.376,-2.075
0.870,0.257,0.053,6.653,9.583,-1.038
0.903,0.273,0.049,6.897,7.324,0.366
0.910,0.277,0.051,11.841,4.395,2.014

0.752,1.134,0.394,43.884,18.616,7.141
0.591,1.656,0.535,66.589,28.992,4.456
0.499,1.985,0.504,113.342,52.429,-45.837
0.508,2.198,0.382,104.675,83.862,-107.971
0.382,2.335,0.262,47.180,104.065,-195.435
0.085,2.042,0.200,-8.362,108.521,-323.975
-0.118,1.295,0.187,-51.147,97.656,-447.083
-0.208,0.657,0.210,-66.650,79.346,-508.972
-0.262,0.265,0.205,-59.387,69.031,-526.855
-0.274,0.025,0.107,-48.340,72.083,-524.902
-0.299,-0.138,-0.029,-62.500,76.172,-519.592
-0.295,-0.333,-0.161,-85.449,70.190,-520.752
-0.279,-0.497,-0.196,-101.074,53.223,-531.921
-0.239,-0.737,-0.154,-103.394,28.564,-553.345
-0.142,-1.060,-0.061,-102.051,4.883,-561.279
-0.050,-1.413,0.049,-107.117,-8.240,-542.358
0.126,-1.639,0.124,-112.000,-10.010,-507.812
0.274,-1.998,0.096,-87.402,-4.028,-501.221
0.274,-2.496,0.024,-71.716,6.958,-498.047
0.247,-2.961,-0.017,-90.454,15.564,-466.125
0.264,-3.311,0.005,-114.624,11.475,-397.522
0.264,-3.493,0.108,-109.558,-5.066,-292.175
0.226,-3.466,0.281,-80.627,-21.912,-146.973
0.259,-2.906,0.462,-30.945,-25.574,26.428
0.282,-2.132,0.511,30.762,-12.146,154.419
0.335,-1.544,0.486,39.001,13.184,202.820
0.376,-1.244,0.410,20.691,36.438,207.581
0.405,-1.128,0.332,11.414,47.058,200.195
0.422,-1.047,0.280,7.324,49.072,196.594
0.441,-0.942,0.245,10.071,48.157,199.158
0.468,-0.819,0.211,17.883,46.997,202.942
0.492,-0.700,0.188,24.780,44.556,205.322
0.522,-0.602,0.168,29.358,41.687,203.674
0.540,-0.517,0.144,31.189,39.429,199.524
0.568,-0.443,0.115,29.297,37.537,195.251
0.601,-0.371,0.089,23.926,36.072,190.613
0.628,-0.318,0.060,17.517,34.790,183.472
0.666,-0.284,0.024,11.230,34.302,174.011
0.704,-0.265,-0.005,5.249,33.447,164.307
0.736,-0.259,-0.024,1.770,31.067,153.992
0.770,-0.276,-0.035,-0.061,27.161,143.494
0.787,-0.303,-0.035,-1.953,23.132,132.996
0.808,-0.326,-0.033,-3.784,20.203,124.878
0.824,-0.344,-0.025,-1.892,17.029,118.103
0.836,-0.354,-0.013,2.686,14.160,112.671
0.850,-0.362,-0.011,5.432,14.160,109.863
0.845,-0.368,-0.013,4.883,16.235,106.995
0.851,-0.362,-0.033,5.371,19.470,106.262
0.857,-0.351,-0.066,7.507,20.569,107.361
0.859,-0.317,-0.079,4.456,17.517,109.070
0.869,-0.286,-0.076,-0.061,11.963,109.741
0.876,-0.262,-0.068,-1.709,6.836,108.826
0.848,-0.228,-0.055,-0.977,2.563,106.628
0.917,-0.178,-0.046,0.854,0.916,106.201
0.890,-0.230,-0.077,7.690,-1.282,100.769
0.918,-0.198,-0.038,-5.798,-2.075,95.764
0.911,-0.149,-0.000,-14.160,-2.075,95.764
0.921,-0.161,-0.017,-0.183,0.244,91.431
0.930,-0.161,-0.035,3.845,3.113,86.609
0.939,-0.160,-0.043,-3.845,3.235,82.642
0.940,-0.162,-0.033,-10.437,0.488,78.857
0.937,-0.148,-0.031,-10.559,-1.648,78.186
0.950,-0.122,-0.038,-7.996,-2.075,78.552
0.954,-0.100,-0.045,-4.761,-2.747,78.064
0.951,-0.090,-0.048,-2.930,-4.883,75.684
0.962,-0.071,-0.043,-1.587,-7.385,73.547
0.971,-0.047,-0.029,-0.122,-10.986,72.571
0.969,-0.033,-0.012,1.221,-14.709,69.397
0.979,-0.037,0.013,2.930,-16.296,64.819
0.987,-0.016,0.025,3.479,-15.198,61.890
0.992,0.003,0.020,4.150,-12.451,59.265
0.993,0.017,0.010,4.578,-10.742,56.274
0.990,0.023,0.008,5.127,-10.376,52.307
0.994,0.042,0.003,7.324,-11.902,48.218
0.998,0.052,0.013,7.629,-14.954,45.898
0.996,0.052,0.037,3.662,-17.822,41.321
1.000,0.057,0.055,0.549,-18.677,33.386
0.997,0.050,0.072,0.977,-18.372,25.391
1.003,0.027,0.083,1.709,-17.334,19.226
1.005,0.010,0.097,-0.549,-15.320,14.954
1.002,-0.009,0.112,-2.563,-11.658,12.512
1.003,-0.036,0.108,-1.709,-7.141,11.169
1.005,-0.054,0.094,-0.305,-3.235,10.864
1.006,-0.055,0.078,0.854,-1.099,12.085
1.005,-0.045,0.061,3.174,-0.732,13.794
1.004,-0.028,0.052,5.493,-1.099,14.893
1.002,-0.013,0.056,5.981,-2.747,15.198
1.001,-0.007,0.072,5.493,-4.700,14.954
1.000,-0.004,0.082,4.700,-5.249,14.099
1.006,0.000,0.079,4.822,-4.272,13.428
1.001,-0.000,0.076,6.775,-3.418,12.573
0.995,0.019,0.072,6.042,-2.380,13.062
0.996,0.040,0.067,5.859,-2.197,13.611
0.990,0.048,0.067,7.812,-2.136,12.390
1.001,0.048,0.059,8.179,-2.197,10.132
1.003,0.035,0.068,6.592,-2.930,6.592
0.995,0.019,0.071,3.418,-3.113,2.869
1.001,-0.004,0.072,1.221,-1.709,0.488
0.994,-0.029,0.079,0.610,-0.854,-0.305
0.995,-0.035,0.084,1.587,-0.488,1.221
0.998,-0.036,0.087,3.723,-0.427,3.418
0.987,-0.033,0.078,5.127,-0.122,4.761
1.001,-0.036,0.065,6.104,0.183,6.470
0.993,-0.029,0.061,6.714,0.366,8.850
0.989,-0.006,0.052,6.470,0.000,11.353
0.997,0.006,0.048,8.484,-1.282,12.695
0.989,0.010,0.054,11.230,-3.540,12.878
0.996,0.010,0.061,10.925,-5.188,12.878
0.997,0.011,0.076,9.399,-6.714,12.695
0.996,0.015,0.089,7.446,-7.141,12.573
0.993,0.023,0.094,6.714,-5.554,12.634
0.994,0.022,0.090,8.240,-3.906,12.207
1.001,0.014,0.088,10.071,-3.418,11.047
0.991,0.003,0.088,10.315,-3.540,10.254
0.995,-0.006,0.087,11.353,-3.235,10.193
0.994,-0.010,0.086,14.587,-3.479,11.780
0.991,0.003,0.090,14.099,-4.700,15.503
1.004,0.016,0.092,10.803,-5.371,16.296
0.998,0.025,0.104,8.301,-5.737,15.381

0.767,1.213,0.298,57.739,21.545,-18.127
0.700,1.459,0.310,64.331,33.630,-85.205
0.635,1.504,0.253,68.359,48.950,-175.842
0.476,1.296,0.188,16.418,60.181,-278.320
0.279,0.851,0.157,-51.392,62.012,-366.760
0.186,0.443,0.107,-62.805,52.429,-412.231
0.153,0.220,0.067,-45.227,39.429,-423.340
0.076,0.129,0.040,-37.292,32.959,-421.631
0.037,-0.016,-0.004,-30.945,32.715,-427.002
0.037,-0.260,-0.041,-26.062,29.114,-438.965
0.021,-0.525,-0.042,-30.701,21.057,-454.285
0.031,-0.786,-0.024,-28.931,13.306,-482.239
0.112,-1.210,-0.009,-22.949,5.676,-504.883
0.169,-1.793,0.007,-31.006,-2.014,-496.033
0.227,-2.330,0.020,-46.753,-6.287,-433.044
0.331,-2.643,-0.019,-55.908,-4.028,-366.516
0.342,-2.899,-0.022,-53.467,-1.892,-304.321
0.327,-3.052,0.010,-41.199,-4.639,-221.436
0.357,-2.926,0.079,-20.935,-11.963,-109.314
0.407,-2.369,0.193,-0.732,-19.714,6.653
0.432,-1.880,0.274,8.972,-17.395,72.815
0.426,-1.629,0.313,7.568,-6.042,94.788
0.409,-1.512,0.301,4.944,6.287,101.990
0.419,-1.426,0.244,9.460,16.296,110.291
0.436,-1.309,0.190,14.709,19.897,121.399
0.458,-1.199,0.156,18.127,16.785,130.737
0.490,-1.135,0.154,19.287,10.620,136.963
0.502,-1.083,0.180,19.226,4.944,141.968
0.508,-1.009,0.210,19.775,2.380,149.475
0.510,-0.899,0.221,21.790,4.150,158.142
0.540,-0.788,0.203,25.085,7.935,164.429
0.572,-0.697,0.180,24.719,11.536,166.931
0.606,-0.644,0.156,20.325,13.428,166.199
0.628,-0.610,0.128,15.015,15.076,164.246
0.654,-0.572,0.096,11.292,16.846,163.940
0.685,-0.526,0.065,10.010,16.663,164.673
0.713,-0.486,0.049,9.277,14.221,164.124
0.744,-0.460,0.049,10.864,10.254,161.255
0.758,-0.429,0.065,13.367,6.287,157.471
0.772,-0.387,0.084,14.709,4.639,153.564
0.781,-0.346,0.094,17.700,5.066,148.560
0.794,-0.317,0.093,20.325,7.385,142.273
0.814,-0.308,0.076,19.104,11.597,135.254
0.829,-0.319,0.045,15.869,15.015,128.601
0.824,-0.338,0.014,11.414,16.602,123.535
0.826,-0.324,-0.012,6.348,16.968,121.948
0.837,-0.292,-0.031,2.258,14.465,122.437
0.848,-0.265,-0.036,-1.343,10.254,121.277
0.862,-0.245,-0.035,-4.822,6.470,119.507
0.951,-0.228,-0.040,-5.615,4.395,117.126
0.820,-0.259,-0.038,-1.099,2.075,112.793
0.887,-0.221,-0.036,-3.479,0.793,111.633
0.889,-0.156,-0.000,-2.502,-2.502,114.502
0.896,-0.129,0.008,6.287,-4.700,111.877
0.928,-0.111,0.007,6.470,-2.930,105.530
0.912,-0.118,-0.003,0.427,-1.404,97.717
0.931,-0.130,-0.020,-6.226,-0.366,90.759
0.937,-0.145,-0.035,-8.057,-1.038,86.914
0.933,-0.153,-0.039,-8.240,-3.601,84.961
0.943,-0.138,-0.039,-10.437,-7.080,83.984
0.945,-0.116,-0.029,-11.414,-10.986,83.008
0.951,-0.093,-0.012,-11.536,-14.709,81.360
0.944,-0.094,0.005,-9.399,-17.273,77.209
0.934,-0.056,0.011,-2.136,-19.348,75.439
0.955,0.022,0.020,1.587,-22.095,78.064
0.966,0.045,0.031,2.625,-24.170,73.730
0.972,0.048,0.038,-2.869,-25.024,65.430
0.969,0.051,0.054,-13.367,-23.621,57.251
0.980,0.044,0.058,-12.146,-21.667,49.011
0.978,0.036,0.051,-4.883,-20.630,42.542
0.975,0.042,0.046,-2.441,-21.362,38.391
0.972,0.051,0.053,-2.625,-23.560,35.217
0.979,0.044,0.077,-1.648,-26.978,30.823
0.981,0.024,0.114,-1.404,-30.518,26.794
0.989,-0.003,0.150,-2.686,-31.616,23.376
0.986,-0.026,0.181,-2.930,-29.785,21.851
0.990,-0.034,0.198,-1.465,-25.696,22.949
0.999,-0.023,0.198,-1.465,-19.775,24.902
0.996,-0.005,0.191,-2.014,-13.672,26.062
0.994,0.015,0.168,-2.319,-8.240,26.550
0.996,0.024,0.142,-2.686,-4.822,25.757
0.993,0.033,0.130,-4.639,-4.028,24.292
0.993,0.041,0.130,-5.310,-5.066,22.949
0.994,0.048,0.135,-4.333,-6.775,21.362
0.992,0.054,0.144,-3.601,-7.324,19.592
0.992,0.053,0.153,-2.686,-6.775,16.968
0.992,0.051,0.157,-2.319,-5.737,14.221
0.993,0.040,0.157,-2.014,-4.578,11.719
0.993,0.030,0.155,-2.075,-3.357,9.521
1.000,0.023,0.154,-2.319,-2.197,8.240
0.988,0.010,0.153,-2.136,-1.526,7.385
0.996,-0.000,0.152,-3.357,-1.099,7.080
0.997,-0.007,0.148,-5.493,-0.732,7.568
0.994,-0.006,0.146,-5.859,-0.366,8.362
0.993,0.004,0.144,-5.371,-0.305,9.338
0.996,0.017,0.138,-4.639,0.122,9.949
0.991,0.033,0.138,-4.150,0.427,9.644
0.991,0.033,0.141,-2.380,-0.366,8.362
0.992,0.027,0.149,-1.404,-0.549,6.409
0.990,0.019,0.158,-0.916,-0.183,5.371
0.989,0.008,0.162,0.488,0.366,4.822
0.991,0.007,0.156,1.343,1.953,4.822
0.986,0.012,0.143,2.075,3.845,5.249
0.987,0.012,0.127,2.319,4.639,5.432
0.987,0.013,0.116,1.587,4.089,5.188
0.984,0.016,0.113,1.099,3.113,5.371
0.986,0.018,0.115,1.282,1.465,5.676
0.985,0.020,0.125,0.854,0.183,5.859
0.988,0.023,0.137,0.732,-0.977,5.859
0.987,0.027,0.146,0.610,-1.099,5.920
0.989,0.036,0.152,0.488,-0.793,5.676
0.986,0.047,0.154,0.732,-0.305,5.188
0.990,0.057,0.155,1.099,0.366,4.456
0.989,0.051,0.160,1.892,1.526,2.747
0.993,0.041,0.161,1.221,3.235,0.977
0.991,0.028,0.164,0.244,4.883,-0.305
0.999,0.018,0.165,-0.549,6.042,-0.732
0.997,0.012,0.165,0.122,7.263,-0.793
0.991,0.021,0.158,0.977,8.972,-0.244

0.701,1.606,0.078,14.526,-11.292,-68.909
0.600,1.717,0.076,28.259,-16.418,-161.804
0.408,1.662,0.122,-9.644,-18.066,-255.981
0.244,1.311,0.227,-49.744,-26.123,-347.473
0.099,0.999,0.363,-47.363,-37.964,-411.255
-0.038,0.887,0.476,-41.260,-37.415,-446.045
-0.190,0.799,0.490,-37.476,-21.790,-475.464
-0.358,0.628,0.432,-44.495,-1.831,-505.676
-0.495,0.343,0.366,-57.800,11.230,-531.311
-0.575,-0.029,0.356,-66.345,13.916,-549.194
-0.575,-0.478,0.371,-67.017,10.864,-562.866
-0.472,-0.898,0.368,-58.044,8.301,-596.008
-0.395,-1.459,0.352,-48.645,5.188,-646.851
-0.331,-2.633,0.355,-65.735,3.357,-623.901
-0.210,-3.150,0.348,-87.280,2.319,-523.926
-0.120,-3.525,0.309,-79.346,8.423,-452.515
-0.119,-3.840,0.275,-88.196,19.226,-364.197
-0.139,-3.893,0.282,-81.116,22.034,-236.267
-0.099,-3.353,0.306,-36.072,12.634,-73.730
-0.043,-2.398,0.365,-4.883,6.226,57.190
0.004,-1.778,0.384,9.338,9.460,105.042
0.015,-1.506,0.374,12.695,14.160,107.056
0.028,-1.425,0.340,17.090,17.212,98.083
0.057,-1.380,0.293,28.137,17.517,95.886
0.118,-1.339,0.250,41.321,14.771,100.525
0.155,-1.305,0.233,48.401,9.460,108.826
0.197,-1.296,0.234,51.575,3.662,117.188
0.213,-1.273,0.243,56.152,-0.488,127.991
0.243,-1.220,0.238,64.026,-2.747,141.174
0.270,-1.121,0.233,69.458,-4.883,156.555
0.309,-0.994,0.230,69.275,-6.897,171.509
0.339,-0.847,0.237,65.125,-9.460,182.190
0.370,-0.708,0.235,59.082,-11.230,187.927
0.431,-0.605,0.227,52.673,-12.085,186.096
0.497,-0.553,0.235,47.363,-14.648,179.138
0.553,-0.538,0.265,44.067,-18.799,170.044
0.597,-0.548,0.303,40.771,-21.240,160.339
0.631,-0.567,0.327,37.231,-18.555,152.161
0.651,-0.581,0.325,33.813,-11.414,146.851
0.672,-0.583,0.301,30.029,-3.723,143.677
0.679,-0.578,0.277,26.489,2.075,142.212
0.694,-0.572,0.261,21.240,6.104,141.357
0.700,-0.572,0.250,15.625,9.155,139.648
0.703,-0.556,0.234,12.756,13.428,138.062
0.714,-0.524,0.208,13.184,17.761,137.085
0.722,-0.488,0.178,13.672,20.386,135.559
0.738,-0.449,0.148,12.817,21.790,133.606
0.756,-0.415,0.126,11.230,21.851,129.883
0.770,-0.387,0.115,8.972,20.569,125.732
0.778,-0.360,0.112,5.188,19.043,120.789
0.869,-0.329,0.094,2.197,19.104,114.990
0.773,-0.365,0.083,4.639,19.775,107.056
0.808,-0.387,0.093,-1.709,19.470,99.792
0.816,-0.395,0.100,2.258,17.944,98.511
0.819,-0.382,0.073,14.771,19.714,95.764
0.833,-0.352,0.051,15.442,21.545,91.248
0.845,-0.353,0.028,13.794,20.508,84.534
0.846,-0.362,0.023,11.414,17.578,79.041
0.860,-0.353,0.030,9.277,13.611,77.209
0.868,-0.350,0.036,9.521,10.315,75.500
0.873,-0.340,0.049,5.859,7.751,73.486
0.885,-0.339,0.063,2.686,6.287,70.801
0.899,-0.334,0.070,0.305,6.592,68.115
0.894,-0.332,0.068,-1.953,7.690,65.613
0.905,-0.339,0.062,-3.967,8.484,63.477
0.911,-0.352,0.055,-3.662,8.179,61.584
0.912,-0.346,0.054,-2.563,7.507,60.425
0.916,-0.333,0.055,0.488,5.920,59.937
0.926,-0.320,0.060,4.395,4.089,59.143
0.934,-0.309,0.064,7.019,2.808,58.167
0.935,-0.301,0.061,9.399,2.808,57.434
0.934,-0.273,0.048,11.780,4.395,57.129
0.935,-0.243,0.027,13.733,5.371,56.580
0.939,-0.220,0.011,13.672,4.028,54.749
0.943,-0.207,0.016,10.925,0.977,52.307
0.943,-0.215,0.028,6.653,-1.892,48.950
0.945,-0.226,0.042,2.686,-3.601,46.265
0.944,-0.219,0.056,0.183,-4.272,45.410
0.951,-0.199,0.061,0.854,-4.211,45.898
0.954,-0.171,0.062,2.808,-4.150,46.021
0.960,-0.152,0.066,3.662,-4.150,44.739
0.962,-0.149,0.071,4.761,-4.517,41.931
0.965,-0.151,0.076,4.822,-5.188,38.513
0.968,-0.146,0.077,4.883,-4.944,35.461
0.974,-0.145,0.073,6.775,-4.456,33.142
0.971,-0.143,0.075,6.409,-5.371,31.006
0.976,-0.149,0.080,3.967,-6.104,28.870
0.984,-0.163,0.086,3.113,-7.019,26.550
0.979,-0.161,0.104,2.930,-7.812,25.635
0.985,-0.154,0.114,3.479,-7.874,25.452
0.986,-0.152,0.118,3.723,-6.714,23.804
0.989,-0.158,0.118,3.357,-5.371,21.851
0.990,-0.169,0.124,2.197,-4.639,20.447
0.993,-0.167,0.132,1.404,-4.395,20.203
0.994,-0.160,0.134,2.625,-3.418,20.142
0.997,-0.163,0.125,3.845,-2.380,19.653
0.991,-0.163,0.119,3.174,-1.038,18.799
0.987,-0.150,0.111,3.784,0.000,18.799
0.990,-0.134,0.103,5.371,0.488,18.860
0.988,-0.120,0.097,5.737,0.183,17.822
0.985,-0.114,0.098,5.554,-0.122,15.991
0.986,-0.124,0.099,5.310,-0.244,13.794
0.984,-0.145,0.104,3.540,-0.244,12.268
0.986,-0.169,0.111,1.831,0.061,11.963
0.986,-0.179,0.113,2.014,0.427,13.428
0.986,-0.166,0.107,3.723,1.587,16.113
0.988,-0.150,0.096,5.249,2.991,17.944
0.990,-0.139,0.084,5.432,3.357,18.066
0.987,-0.130,0.079,5.066,2.686,17.578
0.988,-0.123,0.081,5.554,1.160,17.151
0.988,-0.115,0.089,6.042,0.000,16.663
0.986,-0.101,0.093,6.165,-0.061,16.174
0.983,-0.088,0.090,6.409,0.732,15.442
0.985,-0.083,0.081,6.409,1.404,13.672
0.985,-0.086,0.080,5.127,1.343,11.658
0.986,-0.099,0.084,3.906,0.610,10.132
0.986,-0.113,0.096,2.380,-0.122,9.399
0.987,-0.130,0.106,1.160,-0.305,9.277
0.987,-0.138,0.109,1.282,0.549,9.888

0.097,-1.940,0.674,0.061,0.366,-472.900
0.120,-2.200,0.622,-42.053,25.574,-403.687
0.138,-2.469,0.484,-52.673,45.349,-354.431
0.155,-2.697,0.335,-42.297,53.894,-299.500
0.145,-2.842,0.267,-44.006,46.814,-228.027
0.152,-2.802,0.297,-38.208,25.391,-138.916
0.205,-2.397,0.418,-18.616,1.343,-42.175
0.221,-1.896,0.550,-5.981,-8.057,24.048
0.235,-1.588,0.586,4.578,1.282,49.805
0.230,-1.421,0.547,9.033,19.287,56.519
0.224,-1.325,0.462,14.404,34.729,61.340
0.220,-1.247,0.371,23.010,44.128,68.542
0.233,-1.187,0.302,28.992,47.546,76.416
0.252,-1.144,0.258,30.396,46.753,83.496
0.277,-1.123,0.229,29.419,45.105,90.515
0.294,-1.095,0.214,28.931,43.335,98.694
0.314,-1.067,0.196,32.471,41.687,107.056
0.335,-1.021,0.181,37.292,39.551,114.624
0.361,-0.953,0.164,40.771,36.255,121.643
0.395,-0.862,0.158,40.710,32.104,126.160
0.423,-0.797,0.156,40.039,27.283,127.319
0.464,-0.755,0.168,39.246,21.301,125.000
0.506,-0.745,0.190,36.621,14.893,120.911
0.534,-0.750,0.220,33.386,10.376,115.662
0.560,-0.751,0.251,29.114,8.545,112.427
0.580,-0.758,0.271,27.893,9.277,111.023
0.595,-0.754,0.276,25.696,12.573,111.938
0.617,-0.758,0.270,20.325,16.846,113.770
0.622,-0.767,0.259,14.893,20.508,115.601
0.631,-0.754,0.244,9.827,24.048,118.469
0.635,-0.710,0.222,7.568,27.832,122.620
0.652,-0.656,0.207,8.972,29.724,125.549
0.665,-0.614,0.199,10.803,29.907,125.610
0.673,-0.574,0.184,9.277,31.555,123.474
0.682,-0.543,0.153,7.080,34.729,120.056
0.698,-0.517,0.120,6.226,37.292,116.333
0.708,-0.493,0.093,6.531,37.415,112.244
0.721,-0.471,0.075,7.263,35.400,107.910
0.685,-0.473,0.079,6.653,32.654,102.783
0.750,-0.479,0.073,8.362,29.663,97.168
0.753,-0.540,0.066,6.775,26.978,89.844
0.769,-0.501,0.102,2.441,25.574,91.370
0.771,-0.484,0.071,19.043,28.198,90.271
0.779,-0.443,0.040,18.738,31.372,87.036
0.797,-0.445,0.020,14.404,31.250,80.444
0.807,-0.510,0.011,11.169,27.954,72.937
0.814,-0.535,0.027,3.845,22.705,72.449
0.822,-0.534,0.034,4.272,19.226,75.317
0.829,-0.514,0.032,3.967,18.066,78.552
0.837,-0.488,0.034,1.221,17.700,81.116
0.845,-0.467,0.030,3.418,16.785,81.116
0.852,-0.445,0.028,4.883,15.869,80.078
0.864,-0.432,0.022,4.272,14.526,78.552
0.859,-0.415,0.019,3.723,13.123,77.087
0.864,-0.386,0.018,3.418,11.475,76.660
0.875,-0.358,0.014,4.700,9.705,75.989
0.883,-0.338,0.015,4.333,7.751,74.219
0.892,-0.336,0.019,2.014,5.737,70.984
0.892,-0.336,0.023,0.000,4.578,68.237
0.896,-0.330,0.020,-0.061,4.150,66.833
0.901,-0.317,0.015,1.038,4.028,66.162
0.904,-0.298,0.011,1.953,3.113,65.430
0.911,-0.287,0.012,2.991,1.465,64.148
0.925,-0.279,0.021,1.831,-0.671,62.378
0.927,-0.276,0.036,-0.061,-1.770,59.814
0.932,-0.272,0.045,0.793,-1.892,57.617
0.937,-0.254,0.049,2.502,-1.465,56.396
0.943,-0.236,0.047,4.456,-0.977,55.115
0.950,-0.222,0.044,5.188,-0.366,53.040
0.956,-0.231,0.047,5.615,-0.671,49.805
0.961,-0.233,0.059,3.662,-1.526,47.363
0.959,-0.224,0.067,2.319,-1.831,45.776
0.964,-0.215,0.066,4.089,-1.526,44.556
0.961,-0.199,0.060,5.188,-0.916,43.152
0.969,-0.194,0.049,5.005,-0.366,41.077
0.967,-0.189,0.044,4.456,-0.488,39.246
0.968,-0.188,0.041,3.662,-1.221,37.598
0.966,-0.183,0.043,2.502,-1.953,36.011
0.970,-0.179,0.051,2.808,-3.235,34.363
0.972,-0.173,0.067,3.479,-4.517,32.959
0.980,-0.173,0.079,3.174,-5.249,31.677
0.980,-0.176,0.083,1.465,-4.272,29.968
0.981,-0.175,0.075,-0.122,-2.502,28.503
0.978,-0.170,0.061,-0.427,-0.916,28.076
0.975,-0.161,0.045,1.343,-0.244,27.466
0.976,-0.145,0.036,2.991,-0.610,26.550
0.975,-0.125,0.035,4.700,-1.892,25.269
0.977,-0.108,0.042,6.165,-3.845,23.193
0.975,-0.102,0.056,6.958,-5.493,20.508
0.975,-0.102,0.066,6.653,-6.104,17.700
0.976,-0.120,0.073,4.761,-5.493,15.137
0.980,-0.147,0.081,2.563,-4.456,12.939
0.982,-0.161,0.088,1.465,-3.845,12.329
0.987,-0.167,0.096,2.075,-3.540,13.062
0.993,-0.160,0.105,2.319,-2.991,14.221
0.997,-0.146,0.107,1.892,-1.709,15.015
1.000,-0.131,0.103,2.686,-0.488,15.015
1.001,-0.125,0.093,2.747,0.610,14.099
1.003,-0.128,0.087,1.770,1.709,12.329
0.999,-0.132,0.082,1.343,1.892,10.986
0.995,-0.133,0.078,2.319,1.953,10.010
0.992,-0.128,0.073,3.418,1.831,9.155
0.989,-0.125,0.074,4.578,1.587,7.996
0.984,-0.122,0.075,4.883,1.404,6.714
0.980,-0.124,0.072,4.517,1.709,5.615
0.978,-0.129,0.063,3.418,2.319,4.333
0.980,-0.140,0.052,2.258,2.991,3.906
0.980,-0.144,0.050,1.099,2.625,4.150
0.982,-0.137,0.051,0.305,1.465,5.005
0.989,-0.132,0.056,0.366,0.427,5.066
0.991,-0.144,0.069,0.183,-0.549,4.272
0.996,-0.168,0.087,-0.183,-1.160,2.869
0.995,-0.182,0.096,0.000,-0.977,3.296
0.996,-0.184,0.095,1.160,0.183,5.005
0.993,-0.175,0.086,3.357,2.014,6.592
0.995,-0.165,0.076,5.005,2.747,7.690
0.994,-0.160,0.071,5.005,2.075,8.118
0.991,-0.160,0.074,3.479,1.465,8.423
0.992,-0.160,0.078,2.686,1.099,8.789

0.694,1.454,0.043,38.513,-13.733,-142.395
0.531,1.465,-0.002,-0.793,-13.184,-234.558
0.327,1.307,0.039,-55.115,-23.682,-313.232
0.160,0.955,0.173,-72.754,-40.283,-382.324
0.036,0.580,0.327,-71.106,-52.185,-431.824
-0.066,0.309,0.471,-63.721,-47.424,-458.252
-0.143,0.054,0.550,-49.561,-28.564,-471.680
-0.182,-0.160,0.588,-39.551,-3.906,-477.173
-0.199,-0.429,0.629,-30.945,17.334,-483.276
-0.195,-0.701,0.619,-20.447,38.086,-501.038
-0.122,-1.138,0.470,-10.315,61.829,-533.569
-0.162,-1.796,0.247,-18.250,81.116,-557.617
-0.152,-2.490,0.040,-51.819,86.365,-497.437
-0.066,-2.938,-0.107,-64.819,72.327,-411.438
0.044,-3.295,-0.108,-71.716,45.776,-353.271
0.023,-3.557,-0.026,-80.994,22.583,-276.611
0.036,-3.567,0.048,-55.664,4.150,-158.081
0.106,-2.963,0.159,-16.357,-13.123,-12.390
0.160,-2.205,0.282,4.883,-23.193,90.820
0.182,-1.736,0.347,14.587,-20.630,128.357
0.176,-1.482,0.351,17.883,-12.085,137.024
0.202,-1.308,0.329,19.470,-5.432,141.174
0.242,-1.169,0.329,23.621,-2.808,145.264
0.265,-1.083,0.333,28.809,-0.732,147.156
0.289,-1.059,0.313,33.386,5.432,145.630
0.300,-1.036,0.272,36.255,13.184,145.813
0.323,-1.009,0.219,42.053,18.494,149.658
0.335,-0.965,0.168,48.462,20.630,155.579
0.352,-0.887,0.130,51.086,20.386,162.048
0.386,-0.802,0.104,48.523,17.334,167.725
0.431,-0.714,0.093,41.565,12.573,169.983
0.480,-0.640,0.091,35.767,8.118,167.786
0.533,-0.616,0.089,34.851,3.784,160.950
0.581,-0.616,0.105,35.828,-0.366,153.748
0.619,-0.602,0.128,34.119,-4.089,149.719
0.654,-0.574,0.152,29.907,-5.798,147.217
0.682,-0.554,0.174,26.794,-4.883,143.921
0.705,-0.565,0.185,26.245,-2.625,139.404
0.721,-0.589,0.184,26.550,-0.183,134.705
0.725,-0.595,0.178,26.001,3.235,133.484
0.734,-0.571,0.173,23.193,6.592,134.827
0.739,-0.542,0.151,21.118,10.193,135.376
0.739,-0.499,0.115,16.785,14.954,135.803
0.745,-0.450,0.074,11.230,18.738,135.986
0.761,-0.406,0.039,8.545,18.860,134.521
0.777,-0.364,0.027,6.653,15.869,132.202
0.791,-0.336,0.028,4.944,11.292,128.418
0.803,-0.296,0.036,1.831,7.690,123.596
0.820,-0.274,0.039,1.221,6.714,117.432
0.829,-0.262,0.036,0.854,6.714,109.558
0.893,-0.247,0.031,1.404,6.897,101.746
0.849,-0.311,0.002,6.287,6.226,92.468
0.853,-0.299,0.042,-3.113,3.845,86.853
0.878,-0.294,0.058,3.479,1.343,85.022
0.885,-0.287,0.041,17.151,3.540,80.017
0.889,-0.264,0.017,17.944,7.812,75.256
0.900,-0.307,-0.010,12.634,9.521,67.627
0.892,-0.321,-0.012,3.418,6.958,64.209
0.898,-0.305,-0.004,1.831,2.563,65.002
0.908,-0.278,-0.000,4.700,-0.488,64.880
0.915,-0.246,0.005,3.296,-1.892,63.293
0.924,-0.233,0.015,0.793,-3.296,59.509
0.929,-0.238,0.023,-0.854,-4.089,54.443
0.938,-0.241,0.029,-2.441,-4.700,50.415
0.939,-0.248,0.034,-3.418,-5.066,47.302
0.942,-0.245,0.044,-3.601,-6.104,45.349
0.947,-0.230,0.053,-2.258,-7.324,44.250
0.956,-0.225,0.060,-0.549,-7.812,41.809
0.957,-0.224,0.066,-0.061,-7.568,38.513
0.964,-0.224,0.069,0.366,-6.592,35.645
0.962,-0.223,0.070,1.587,-5.676,33.203
0.961,-0.239,0.062,3.357,-4.517,30.701
0.963,-0.251,0.058,4.028,-3.601,28.503
0.963,-0.250,0.054,3.296,-3.784,28.076
0.962,-0.244,0.050,3.052,-4.456,28.687
0.958,-0.218,0.046,0.977,-4.822,29.541
0.963,-0.187,0.041,-0.854,-5.615,29.846
0.966,-0.169,0.044,-2.319,-7.019,28.381
0.965,-0.166,0.056,-3.723,-8.728,25.391
0.974,-0.184,0.077,-6.165,-10.620,21.362
0.977,-0.207,0.103,-9.399,-11.536,17.578
0.978,-0.223,0.123,-10.010,-10.864,15.442
0.983,-0.233,0.126,-6.104,-8.667,14.648
0.986,-0.222,0.121,-2.136,-5.615,14.832
0.984,-0.203,0.106,1.343,-3.235,14.893
0.986,-0.186,0.093,4.272,-2.441,13.733
0.984,-0.170,0.085,5.005,-2.502,11.658
0.981,-0.158,0.081,4.089,-3.418,9.216
0.980,-0.158,0.078,2.747,-4.333,6.592
0.977,-0.161,0.080,-0.305,-4.517,4.272
0.974,-0.197,0.090,-3.662,-5.127,1.953
0.971,-0.247,0.107,-7.874,-5.676,0.427
0.964,-0.269,0.119,-11.169,-5.310,2.563
0.973,-0.264,0.114,-11.414,-3.784,6.836
0.973,-0.243,0.105,-9.460,-2.686,10.986
0.977,-0.239,0.094,-7.690,-1.831,12.878
0.975,-0.244,0.091,-7.751,-1.709,13.245
0.978,-0.246,0.090,-7.385,-2.380,14.526
0.978,-0.233,0.095,-5.798,-3.540,16.602
0.981,-0.203,0.105,-3.784,-4.883,18.494
0.982,-0.178,0.112,-0.610,-5.798,18.738
0.980,-0.163,0.114,1.892,-6.042,17.578
0.979,-0.151,0.118,0.549,-5.615,15.747
0.976,-0.156,0.119,-1.099,-4.333,13.367
0.974,-0.171,0.121,-1.160,-3.479,11.108
0.976,-0.188,0.127,-1.526,-3.418,10.132
0.977,-0.202,0.135,-1.648,-3.601,9.705
0.981,-0.211,0.135,-0.732,-3.357,10.010
0.984,-0.217,0.134,0.183,-2.441,11.047
0.986,-0.203,0.135,0.183,-1.587,13.062
0.987,-0.189,0.138,0.549,-1.526,14.465
0.988,-0.181,0.139,0.793,-1.282,14.526
0.992,-0.173,0.137,0.793,-0.671,13.977
0.989,-0.162,0.137,1.343,-0.488,13.550
0.990,-0.153,0.138,2.747,-0.549,12.939
0.989,-0.150,0.135,4.211,-0.183,12.146
0.983,-0.138,0.131,3.113,1.038,11.108
0.979,-0.134,0.117,2.502,2.197,9.949
0.975,-0.130,0.102,2.747,2.747,8.423

0.883,1.130,0.200,34.668,9.033,-43.640
0.756,1.433,0.226,28.137,13.306,-120.911
0.600,1.386,0.191,26.978,22.278,-221.008
0.410,1.048,0.179,-10.376,29.602,-316.345
0.236,0.610,0.214,-31.433,26.123,-380.920
0.139,0.361,0.261,-31.250,19.592,-412.170
0.001,0.259,0.313,-25.757,19.775,-426.697
0.013,0.175,0.311,-33.875,29.480,-438.110
-0.090,0.007,0.340,-54.260,38.269,-449.280
-0.069,-0.333,0.360,-73.975,40.955,-464.478
-0.116,-0.714,0.392,-84.900,38.391,-490.601
-0.080,-1.222,0.305,-80.444,45.349,-542.358
-0.081,-2.278,0.133,-82.153,55.969,-565.002
-0.035,-3.003,0.035,-114.136,54.932,-460.999
0.062,-3.369,-0.049,-92.529,39.673,-345.947
0.132,-3.413,-0.086,-48.950,25.818,-227.478
0.200,-2.997,-0.069,-30.396,18.433,-103.821
0.273,-2.458,-0.033,-12.878,9.705,-9.888
0.286,-2.001,0.057,-6.348,-0.793,44.800
0.250,-1.704,0.179,-2.502,-9.277,71.960
0.273,-1.539,0.256,16.907,-11.719,83.130
0.280,-1.416,0.292,34.058,-8.118,91.492
0.296,-1.313,0.279,45.288,-2.319,98.816
0.306,-1.247,0.242,51.392,3.113,104.370
0.321,-1.209,0.203,53.101,6.287,109.558
0.337,-1.181,0.182,52.551,6.653,116.882
0.339,-1.137,0.173,52.124,6.042,125.854
0.347,-1.055,0.158,49.316,6.042,136.230
0.375,-0.966,0.132,44.922,7.019,145.935
0.408,-0.860,0.106,38.147,6.775,152.893
0.449,-0.752,0.088,29.846,4.211,156.921
0.506,-0.673,0.085,22.583,-0.183,156.677
0.565,-0.632,0.107,15.503,-5.310,152.161
0.609,-0.607,0.143,11.475,-10.559,145.691
0.649,-0.597,0.172,11.230,-13.062,139.587
0.683,-0.601,0.191,13.306,-12.146,133.850
0.704,-0.604,0.193,16.113,-8.911,129.028
0.721,-0.623,0.184,18.982,-5.676,126.099
0.747,-0.648,0.185,18.677,-2.930,124.573
0.747,-0.649,0.191,15.198,-0.488,126.099
0.745,-0.635,0.185,11.230,3.723,129.395
0.740,-0.598,0.162,6.836,9.644,132.690
0.744,-0.552,0.125,2.014,15.015,135.315
0.754,-0.514,0.083,-2.380,17.944,136.475
0.755,-0.475,0.055,-7.751,17.822,135.681
0.772,-0.430,0.038,-10.559,15.198,133.850
0.780,-0.387,0.030,-10.193,12.207,131.104
0.800,-0.344,0.024,-9.644,9.827,127.014
0.824,-0.313,0.015,-7.568,8.118,122.498
0.800,-0.288,0.010,-2.014,6.470,116.699
0.834,-0.348,0.006,-4.883,3.784,108.643
0.835,-0.319,0.041,-6.897,0.122,108.276
0.845,-0.315,0.037,7.751,0.549,103.638
0.856,-0.305,0.027,11.292,1.709,96.558
0.866,-0.308,0.005,7.263,2.747,90.942
0.868,-0.321,-0.007,3.479,1.770,86.731
0.875,-0.301,-0.002,1.404,-1.404,86.609
0.886,-0.269,0.007,2.991,-4.639,85.938
0.895,-0.248,0.022,2.869,-7.141,82.886
0.904,-0.248,0.037,1.038,-9.094,77.087
0.907,-0.251,0.048,0.366,-9.644,71.533
0.914,-0.243,0.052,1.099,-9.277,68.237
0.921,-0.238,0.048,3.113,-8.850,65.186
0.926,-0.221,0.040,3.540,-8.301,62.256
0.928,-0.216,0.032,3.052,-8.728,58.472
0.931,-0.227,0.033,2.991,-10.376,54.810
0.935,-0.229,0.042,1.404,-12.756,52.246
0.943,-0.223,0.053,1.831,-15.259,50.781
0.949,-0.211,0.065,2.869,-17.090,49.500
0.956,-0.203,0.081,3.296,-17.883,48.096
0.957,-0.198,0.093,4.150,-18.311,46.021
0.961,-0.189,0.102,4.822,-18.127,44.250
0.962,-0.171,0.105,5.188,-17.334,43.091
0.965,-0.151,0.106,6.348,-16.785,41.504
0.973,-0.146,0.106,6.348,-17.212,38.940
0.971,-0.150,0.121,3.967,-18.066,36.560
0.974,-0.171,0.146,1.770,-19.409,34.302
0.973,-0.200,0.166,0.916,-19.653,32.715
0.970,-0.202,0.185,0.671,-18.066,33.691
0.973,-0.177,0.192,2.930,-15.320,36.255
0.974,-0.150,0.182,7.385,-12.451,37.292
0.977,-0.116,0.165,9.216,-10.254,36.743
0.983,-0.090,0.155,9.094,-9.399,34.729
0.985,-0.083,0.158,9.033,-10.132,31.433
0.990,-0.088,0.165,6.714,-11.169,27.954
1.000,-0.096,0.177,3.662,-11.047,24.780
0.990,-0.099,0.185,2.808,-9.705,22.583
0.990,-0.089,0.184,3.601,-7.935,21.057
0.984,-0.084,0.177,4.639,-6.226,19.775
0.986,-0.084,0.169,4.211,-4.272,17.517
0.981,-0.090,0.169,2.686,-3.113,15.137
0.981,-0.102,0.166,2.747,-2.808,13.184
0.980,-0.103,0.166,2.380,-2.319,12.451
0.980,-0.105,0.164,2.502,-1.892,12.207
0.978,-0.105,0.170,2.319,-1.648,11.841
0.982,-0.097,0.174,1.770,-1.648,11.536
0.982,-0.089,0.171,1.648,-1.099,10.742
0.984,-0.082,0.163,1.038,0.244,9.827
0.984,-0.083,0.155,0.732,1.221,8.118
0.981,-0.089,0.146,0.488,1.587,6.287
0.982,-0.107,0.143,0.244,0.854,4.456
0.979,-0.120,0.148,0.183,-0.183,3.723
0.979,-0.120,0.153,0.671,-0.916,3.967
0.979,-0.119,0.157,2.014,-1.099,4.211
0.980,-0.118,0.161,2.014,-1.099,3.967
0.980,-0.112,0.162,1.282,-0.793,3.845
0.981,-0.110,0.158,1.465,-0.061,3.906
0.982,-0.112,0.157,1.587,0.488,3.601
0.984,-0.124,0.159,1.404,0.061,3.235
0.988,-0.132,0.170,0.061,-0.610,3.418
0.985,-0.137,0.180,-0.549,-0.854,3.845
0.984,-0.133,0.180,0.549,-0.183,4.761
0.983,-0.124,0.169,1.282,1.526,5.615
0.981,-0.112,0.151,2.258,3.662,5.859
0.978,-0.103,0.135,2.930,4.150,5.676
0.978,-0.100,0.128,2.258,2.991,5.127
0.979,-0.105,0.134,1.221,0.610,4.333
0.977,-0.105,0.149,-0.061,-1.282,3.906
0.976,-0.102,0.162,-1.038,-1.770,3.906

0.766,1.160,0.293,-10.803,-17.822,-129.395
0.618,1.226,0.323,7.812,-15.015,-215.942
0.448,1.031,0.311,3.357,-3.540,-303.223
0.285,0.724,0.255,-5.432,7.446,-366.333
0.142,0.496,0.197,-0.610,12.878,-402.832
0.011,0.314,0.170,10.193,12.878,-424.194
-0.082,0.115,0.170,12.573,10.376,-440.308
-0.136,-0.156,0.233,6.104,6.653,-456.360
-0.178,-0.464,0.307,2.319,5.920,-471.069
-0.178,-0.743,0.327,5.432,12.085,-493.164
-0.134,-1.131,0.266,6.470,21.362,-521.179
-0.144,-1.686,0.157,-12.329,31.128,-523.682
-0.040,-2.318,0.059,-43.945,32.715,-453.979
0.046,-2.692,0.022,-51.147,17.944,-367.065
0.139,-2.896,0.045,-43.030,-0.183,-289.429
0.200,-2.953,0.127,-38.513,-14.832,-204.651
0.238,-2.805,0.248,-28.809,-26.245,-117.676
0.270,-2.445,0.376,-13.611,-30.334,-38.269
0.276,-2.086,0.446,2.014,-23.743,16.296
0.276,-1.823,0.456,14.404,-12.146,48.584
0.259,-1.640,0.447,24.475,-2.319,69.214
0.240,-1.503,0.418,37.048,4.089,83.740
0.255,-1.384,0.383,44.312,8.972,95.764
0.271,-1.298,0.364,42.542,11.047,106.384
0.290,-1.244,0.354,36.560,12.878,114.685
0.293,-1.191,0.347,34.302,16.785,122.864
0.309,-1.131,0.314,37.903,22.583,131.714
0.326,-1.049,0.261,40.771,27.832,142.090
0.346,-0.949,0.205,40.344,30.579,151.306
0.375,-0.845,0.159,36.133,30.640,156.372
0.404,-0.752,0.124,31.921,26.978,156.982
0.452,-0.651,0.105,25.085,21.667,155.518
0.496,-0.584,0.100,20.813,15.320,150.269
0.544,-0.553,0.112,17.212,9.216,141.785
0.588,-0.565,0.136,12.939,4.761,131.836
0.621,-0.606,0.160,12.329,2.014,122.437
0.638,-0.642,0.178,13.245,1.892,116.638
0.653,-0.659,0.178,14.648,3.967,114.441
0.669,-0.664,0.170,16.296,6.592,114.014
0.673,-0.663,0.162,17.456,8.362,113.953
0.675,-0.645,0.150,17.517,10.071,114.441
0.692,-0.612,0.134,15.198,11.597,115.540
0.707,-0.584,0.123,12.817,11.780,115.723
0.718,-0.558,0.123,9.705,10.864,115.051
0.731,-0.526,0.126,6.775,10.254,113.892
0.751,-0.501,0.123,5.615,10.681,111.938
0.760,-0.484,0.122,4.517,11.475,109.009
0.768,-0.468,0.109,5.127,12.390,105.225
0.777,-0.448,0.094,5.737,13.062,101.746
0.791,-0.449,0.089,5.615,12.024,97.778
0.844,-0.457,0.097,5.127,10.315,93.567
0.778,-0.521,0.089,7.385,8.362,89.050
0.823,-0.503,0.120,-3.113,8.118,89.478
0.821,-0.474,0.133,1.465,7.996,93.567
0.828,-0.442,0.099,12.085,12.024,93.445
0.833,-0.398,0.075,8.057,16.052,90.942
0.847,-0.423,0.048,3.357,16.296,85.693
0.849,-0.449,0.055,-2.625,13.000,82.214
0.858,-0.456,0.065,-3.296,8.728,82.581
0.861,-0.438,0.072,-1.404,6.592,83.557
0.869,-0.407,0.066,0.488,6.470,84.534
0.876,-0.376,0.055,4.517,7.202,84.229
0.883,-0.342,0.046,6.409,6.958,82.581
0.892,-0.336,0.046,5.981,5.432,79.590
0.896,-0.350,0.060,2.380,2.747,75.928
0.897,-0.361,0.074,-1.282,0.488,73.425
0.907,-0.362,0.076,-2.747,0.244,73.730
0.913,-0.342,0.069,-4.028,1.465,75.378
0.915,-0.302,0.055,-3.540,2.380,76.843
0.916,-0.263,0.043,-1.892,2.014,76.843
0.922,-0.235,0.043,-0.427,0.000,74.402
0.927,-0.221,0.049,0.549,-2.319,70.557
0.931,-0.213,0.062,1.099,-3.723,66.589
0.935,-0.229,0.073,2.075,-4.211,63.293
0.934,-0.247,0.081,2.502,-4.333,61.035
0.937,-0.250,0.081,2.014,-3.601,60.852
0.939,-0.244,0.073,2.686,-2.991,61.951
0.943,-0.236,0.059,3.235,-2.319,63.354
0.944,-0.220,0.050,2.747,-2.380,64.636
0.945,-0.193,0.044,2.197,-4.089,66.040
0.952,-0.154,0.044,2.014,-6.287,67.017
0.957,-0.114,0.050,3.113,-8.789,66.589
0.963,-0.094,0.066,5.737,-11.841,64.758
0.962,-0.090,0.092,6.775,-14.771,61.584
0.974,-0.083,0.119,5.005,-16.357,58.167
0.969,-0.093,0.134,7.568,-16.052,54.199
0.970,-0.085,0.139,11.108,-13.794,51.880
0.970,-0.065,0.137,15.442,-11.597,50.842
0.979,-0.059,0.129,19.348,-10.193,48.767
0.984,-0.047,0.131,16.724,-9.460,46.265
0.986,-0.046,0.136,12.512,-8.911,43.579
0.989,-0.050,0.139,10.376,-8.057,41.077
0.987,-0.044,0.136,9.644,-7.263,39.917
0.988,-0.027,0.129,9.399,-6.409,39.368
0.985,-0.006,0.123,10.376,-6.409,38.147
0.985,0.008,0.122,11.902,-7.263,36.255
0.985,0.017,0.128,11.047,-8.423,33.569
0.985,0.025,0.139,8.911,-9.277,30.518
0.984,0.028,0.150,6.531,-9.216,27.161
0.985,0.024,0.160,5.737,-8.423,23.865
0.988,0.020,0.168,5.493,-6.958,21.179
0.990,0.014,0.170,5.310,-5.066,18.555
0.991,0.007,0.169,5.310,-3.357,15.869
0.994,0.000,0.160,5.493,-2.014,13.733
0.995,-0.004,0.154,5.554,-1.404,12.390
0.997,-0.008,0.152,4.944,-1.160,11.353
0.995,-0.001,0.154,3.723,-1.038,10.864
0.997,-0.004,0.154,3.296,-1.099,10.010
0.994,-0.005,0.155,2.380,-0.916,8.545
0.993,0.003,0.155,1.221,-0.549,7.263
0.992,0.011,0.150,1.831,-0.122,6.104
0.989,0.009,0.149,2.197,-0.061,4.272
0.992,-0.026,0.152,1.343,-0.061,1.953
0.989,-0.052,0.165,-1.404,-0.061,0.549
0.990,-0.063,0.169,-0.793,0.488,0.916
0.990,-0.050,0.161,1.953,2.380,3.174
0.991,-0.040,0.145,3.723,4.089,4.822
0.992,-0.037,0.129,2.319,5.188,4.578
0.992,-0.036,0.120,0.916,4.517,4.150

0.123,-2.068,0.481,-11.108,25.330,-447.571
0.114,-2.484,0.336,-15.503,45.044,-384.583
0.155,-2.758,0.120,-17.456,64.819,-321.594
0.190,-2.920,-0.048,-32.837,68.726,-248.901
0.197,-2.955,-0.080,-34.790,45.166,-160.217
0.254,-2.656,0.041,-18.005,6.042,-59.570
0.286,-2.083,0.267,-7.019,-24.109,26.184
0.344,-1.644,0.424,1.221,-31.433,70.374
0.355,-1.369,0.497,5.859,-20.264,82.825
0.343,-1.248,0.475,12.878,-3.052,82.703
0.318,-1.158,0.402,21.851,12.939,81.482
0.330,-1.089,0.299,31.189,24.414,83.801
0.344,-1.012,0.223,34.973,27.832,88.379
0.362,-0.962,0.187,30.151,25.391,92.285
0.385,-0.951,0.177,23.987,21.118,94.055
0.403,-0.951,0.174,17.761,18.677,97.290
0.422,-0.929,0.164,13.611,17.517,103.455
0.446,-0.891,0.145,14.648,16.968,110.229
0.476,-0.832,0.132,17.822,15.686,115.662
0.497,-0.762,0.128,20.691,12.451,119.019
0.531,-0.700,0.134,23.987,8.057,117.920
0.576,-0.668,0.156,26.733,2.869,113.037
0.610,-0.666,0.192,26.001,-2.014,106.201
0.636,-0.694,0.223,23.193,-3.967,99.121
0.657,-0.740,0.243,19.958,-3.174,93.872
0.670,-0.775,0.259,13.916,-0.916,91.797
0.672,-0.801,0.267,8.667,2.197,92.834
0.667,-0.811,0.259,8.057,7.385,97.778
0.674,-0.796,0.242,6.836,13.000,104.980
0.671,-0.755,0.221,4.822,17.395,112.244
0.679,-0.717,0.193,3.906,19.592,117.737
0.683,-0.675,0.167,3.662,20.325,121.033
0.690,-0.625,0.146,2.197,20.386,122.864
0.700,-0.554,0.135,0.610,19.531,123.596
0.708,-0.493,0.128,1.160,17.761,122.375
0.733,-0.445,0.129,1.099,15.686,118.103
0.752,-0.423,0.140,-0.854,13.611,111.145
0.761,-0.429,0.149,-1.709,12.390,102.722
0.721,-0.442,0.148,-1.587,14.099,95.276
0.776,-0.444,0.117,1.099,17.151,90.698
0.809,-0.511,0.074,0.366,17.883,85.571
0.786,-0.434,0.119,-6.897,14.954,90.698
0.812,-0.388,0.104,9.460,14.893,88.806
0.818,-0.379,0.082,17.151,15.503,79.102
0.832,-0.386,0.070,9.644,16.052,69.885
0.837,-0.447,0.061,4.883,14.954,62.317
0.840,-0.460,0.075,1.709,10.925,62.195
0.857,-0.456,0.090,3.052,7.019,64.636
0.865,-0.452,0.105,2.869,5.554,64.941
0.865,-0.445,0.118,0.305,5.188,64.087
0.872,-0.448,0.118,0.671,6.287,63.232
0.880,-0.451,0.112,0.916,7.690,63.416
0.884,-0.443,0.103,0.244,8.545,63.782
0.888,-0.428,0.098,-1.343,8.545,64.697
0.891,-0.412,0.094,-2.380,7.812,65.613
0.895,-0.392,0.091,-2.930,6.836,66.345
0.897,-0.360,0.082,-2.869,6.714,66.895
0.901,-0.337,0.073,-1.648,6.287,66.284
0.911,-0.329,0.069,-0.061,4.700,64.270
0.910,-0.318,0.073,0.305,3.113,62.134
0.909,-0.298,0.073,1.831,1.709,60.547
0.914,-0.279,0.070,5.066,1.099,58.899
0.918,-0.268,0.074,5.981,-0.183,56.641
0.920,-0.272,0.080,4.395,-1.465,54.016
0.926,-0.272,0.089,2.441,-1.831,52.002
0.930,-0.273,0.094,2.319,-1.831,51.025
0.933,-0.279,0.097,2.747,-2.319,50.171
0.943,-0.291,0.101,2.563,-2.258,49.438
0.943,-0.287,0.107,2.380,-1.892,49.927
0.952,-0.278,0.108,3.723,-2.075,50.964
0.953,-0.268,0.110,4.150,-2.441,51.758
0.956,-0.267,0.110,3.174,-2.075,52.246
0.955,-0.270,0.110,2.808,-2.075,52.063
0.959,-0.260,0.113,2.380,-2.258,52.490
0.960,-0.238,0.115,2.563,-2.747,53.650
0.962,-0.216,0.114,4.028,-3.113,54.260
0.962,-0.183,0.111,4.456,-2.869,54.382
0.964,-0.162,0.103,5.676,-2.441,53.345
0.963,-0.145,0.099,6.531,-2.930,51.819
0.963,-0.122,0.099,5.920,-3.906,50.293
0.967,-0.110,0.098,5.554,-4.700,47.913
0.965,-0.100,0.106,4.456,-5.310,45.044
0.966,-0.093,0.111,3.479,-5.615,42.114
0.966,-0.093,0.114,3.052,-5.920,39.124
0.970,-0.094,0.113,2.197,-5.615,36.316
0.970,-0.087,0.118,2.319,-5.981,34.485
0.973,-0.073,0.123,3.540,-6.592,33.630
0.975,-0.061,0.130,5.005,-6.958,32.349
0.982,-0.055,0.134,5.066,-6.897,30.151
0.982,-0.050,0.136,3.906,-6.165,27.771
0.985,-0.044,0.139,3.052,-5.249,25.940
0.985,-0.054,0.143,2.930,-4.883,23.865
0.987,-0.072,0.149,1.404,-5.127,21.362
0.988,-0.067,0.160,-0.671,-5.249,20.142
0.991,-0.057,0.166,0.000,-4.761,19.714
0.991,-0.056,0.169,0.427,-3.906,18.677
0.992,-0.058,0.169,-0.977,-2.930,16.541
0.994,-0.070,0.164,-0.916,-1.709,14.526
0.991,-0.073,0.157,-0.244,-0.732,13.794
0.987,-0.074,0.146,0.977,-0.122,13.428
0.988,-0.070,0.139,2.380,0.366,12.634
0.987,-0.061,0.138,2.441,0.061,12.329
0.985,-0.055,0.134,1.770,-0.488,11.169
0.984,-0.054,0.136,0.427,-0.610,9.705
0.983,-0.065,0.138,-0.916,-0.916,7.751
0.983,-0.077,0.142,-1.953,-1.099,6.042
0.984,-0.079,0.144,-1.831,-0.977,5.676
0.984,-0.069,0.141,-0.549,-0.549,5.920
0.986,-0.068,0.138,0.977,-0.366,5.554
0.987,-0.079,0.139,0.488,-0.488,4.456
0.986,-0.097,0.146,-0.916,-0.732,3.235
0.986,-0.112,0.151,-1.038,-0.671,2.869
0.988,-0.128,0.154,-0.183,-0.305,3.845
0.989,-0.138,0.157,-0.427,0.366,5.249
0.989,-0.137,0.155,0.244,1.038,7.080
0.990,-0.130,0.150,1.160,1.343,9.399
0.990,-0.115,0.145,1.465,1.770,11.475
0.989,-0.098,0.135,2.136,1.892,12.878
0.990,-0.086,0.129,2.380,1.953,13.245

0.729,1.286,0.224,-6.714,-31.799,-110.168
0.691,1.155,0.322,-43.152,-33.997,-201.294
0.542,0.681,0.445,-84.900,-30.090,-285.706
0.467,0.282,0.543,-104.919,-26.306,-325.500
0.430,0.095,0.594,-96.436,-18.433,-330.994
0.374,0.026,0.584,-70.801,-1.892,-329.285
0.323,-0.004,0.502,-47.668,19.592,-333.923
0.280,-0.062,0.397,-36.072,36.194,-343.811
0.265,-0.243,0.359,-36.194,41.260,-359.436
0.268,-0.517,0.394,-34.363,37.659,-381.714
0.267,-0.788,0.405,-23.865,38.452,-414.124
0.284,-1.140,0.329,-14.526,49.866,-445.984
0.262,-1.703,0.184,-19.470,62.683,-443.665
0.274,-2.131,0.065,-41.687,67.017,-371.948
0.360,-2.308,-0.055,-45.105,59.814,-294.983
0.400,-2.439,-0.115,-35.767,44.678,-230.469
0.427,-2.461,-0.080,-34.058,23.315,-155.823
0.454,-2.271,0.024,-28.870,1.160,-77.820
0.480,-1.903,0.135,-20.508,-10.925,-12.024
0.486,-1.560,0.202,-12.451,-11.597,27.832
0.495,-1.320,0.227,-2.808,-7.568,46.265
0.492,-1.146,0.240,5.798,-4.395,55.054
0.494,-1.034,0.243,15.381,-2.563,58.350
0.499,-0.983,0.235,24.475,-1.282,58.289
0.505,-0.950,0.227,27.588,-0.122,58.167
0.524,-0.925,0.220,27.466,0.549,60.669
0.550,-0.916,0.227,26.489,0.000,64.819
0.579,-0.913,0.247,23.193,-1.038,70.374
0.604,-0.912,0.260,20.874,-0.977,76.233
0.628,-0.912,0.261,20.691,0.610,83.008
0.650,-0.915,0.252,21.729,3.296,90.027
0.673,-0.911,0.242,23.315,4.517,97.046
0.691,-0.884,0.242,24.475,4.150,104.919
0.700,-0.839,0.250,26.367,3.174,111.938
0.709,-0.787,0.262,26.855,2.502,117.432
0.712,-0.729,0.272,24.963,3.540,121.704
0.721,-0.680,0.276,21.729,6.104,123.901
0.725,-0.648,0.270,19.531,8.911,124.023
0.723,-0.633,0.250,17.517,12.451,123.596
0.729,-0.617,0.217,15.198,16.968,123.474
0.730,-0.586,0.183,13.245,20.508,124.573
0.728,-0.529,0.153,11.658,22.217,127.075
0.733,-0.475,0.125,12.329,22.217,127.502
0.735,-0.419,0.102,13.367,21.057,125.488
0.752,-0.364,0.085,14.221,19.470,121.582
0.766,-0.323,0.073,15.320,16.418,115.051
0.788,-0.291,0.064,15.259,13.428,106.995
0.808,-0.289,0.058,14.954,10.803,98.145
0.823,-0.303,0.058,12.817,8.301,89.722
0.833,-0.332,0.067,10.803,6.226,82.825
0.842,-0.353,0.078,10.193,4.578,77.942
0.853,-0.359,0.086,9.949,3.723,75.745
0.830,-0.361,0.101,9.521,2.747,73.975
0.880,-0.369,0.108,10.010,1.892,72.083
0.869,-0.397,0.094,10.254,1.770,68.726
0.910,-0.369,0.105,3.723,2.136,69.946
0.889,-0.339,0.126,9.094,0.183,71.655
0.916,-0.324,0.121,14.160,1.404,69.702
0.912,-0.333,0.118,13.062,3.113,65.308
0.906,-0.341,0.111,7.996,3.967,62.195
0.917,-0.345,0.109,6.287,3.784,62.256
0.924,-0.353,0.111,8.606,2.930,62.683
0.921,-0.344,0.112,8.362,2.563,63.293
0.921,-0.326,0.107,8.850,2.808,64.697
0.922,-0.299,0.101,9.521,3.357,65.735
0.931,-0.285,0.096,9.094,3.479,64.636
0.925,-0.278,0.089,8.484,3.235,62.683
0.929,-0.264,0.077,6.958,3.113,62.256
0.932,-0.250,0.073,5.859,2.014,62.256
0.937,-0.236,0.070,4.883,0.427,61.523
0.934,-0.219,0.070,4.517,-1.038,60.669
0.942,-0.195,0.075,4.700,-2.625,59.937
0.949,-0.171,0.088,4.883,-4.150,58.167
0.951,-0.164,0.099,6.348,-5.249,55.054
0.955,-0.168,0.111,6.348,-5.554,51.636
0.958,-0.175,0.119,5.737,-4.822,48.950
0.961,-0.187,0.124,6.287,-3.540,47.180
0.961,-0.183,0.124,7.812,-2.197,46.814
0.968,-0.175,0.113,10.010,-1.221,46.997
0.966,-0.159,0.103,12.268,-0.854,46.814
0.973,-0.139,0.099,13.245,-1.221,46.082
0.977,-0.133,0.103,14.038,-2.686,44.006
0.981,-0.136,0.114,13.428,-4.089,41.687
0.983,-0.144,0.126,12.146,-4.639,40.161
0.979,-0.146,0.135,11.414,-4.272,39.307
0.981,-0.136,0.130,11.475,-2.869,39.734
0.980,-0.122,0.121,11.963,-1.648,40.405
0.983,-0.099,0.113,12.573,-1.587,40.466
0.983,-0.082,0.111,12.146,-2.319,39.734
0.981,-0.070,0.120,11.169,-3.174,38.086
0.982,-0.066,0.121,10.620,-3.540,36.255
0.984,-0.057,0.120,9.888,-2.441,34.485
0.979,-0.041,0.112,9.888,-1.709,33.325
0.981,-0.023,0.105,9.827,-2.014,31.738
0.980,-0.018,0.105,8.484,-2.808,29.114
0.982,-0.024,0.113,7.141,-3.540,26.367
0.983,-0.031,0.127,6.348,-4.456,23.987
0.984,-0.031,0.137,5.981,-4.700,22.400
0.984,-0.025,0.138,6.714,-3.906,21.423
0.988,-0.021,0.133,7.874,-2.625,19.958
0.988,-0.020,0.127,8.118,-1.831,18.311
0.989,-0.016,0.126,6.958,-1.709,16.846
0.991,-0.012,0.130,5.615,-2.258,15.320
0.992,-0.018,0.137,4.639,-2.686,13.611
0.993,-0.033,0.147,3.174,-2.319,11.536
0.994,-0.045,0.152,1.953,-1.526,10.376
0.993,-0.053,0.151,3.479,-0.854,10.254
0.993,-0.042,0.147,3.784,0.183,10.925
0.995,-0.028,0.139,4.700,0.793,11.047
0.995,-0.029,0.136,4.883,0.854,9.705
0.996,-0.039,0.138,2.686,0.793,8.118
0.994,-0.044,0.142,1.221,0.732,7.202
0.993,-0.036,0.139,1.282,0.977,7.141
0.995,-0.032,0.131,2.441,1.587,7.019
0.996,-0.036,0.128,1.404,1.465,6.165
0.990,-0.046,0.132,0.122,1.282,5.127
0.990,-0.046,0.138,0.549,0.854,5.005
0.991,-0.042,0.139,1.709,0.854,5.066
0.990,-0.042,0.135,1.404,1.465,4.944

0.868,0.957,0.266,42.542,30.457,-43.579
0.785,1.023,0.179,39.734,41.687,-100.891
0.716,1.094,0.126,10.620,45.593,-155.090
0.628,1.061,0.093,-27.527,40.222,-216.797
0.483,0.930,0.120,-65.186,28.503,-277.039
0.393,0.720,0.142,-90.698,13.977,-325.439
0.359,0.501,0.148,-117.249,1.343,-361.755
0.326,0.148,0.163,-134.766,-8.301,-388.428
0.283,-0.141,0.274,-138.184,-17.395,-399.475
0.280,-0.341,0.401,-123.169,-22.766,-393.311
0.308,-0.527,0.486,-101.074,-15.320,-382.385
0.338,-0.692,0.505,-80.872,-0.671,-380.554
0.369,-0.914,0.458,-55.603,17.517,-390.625
0.385,-1.227,0.351,-37.842,36.377,-389.587
0.387,-1.588,0.233,-33.569,49.500,-357.239
0.413,-1.831,0.137,-29.236,51.575,-300.842
0.450,-1.974,0.060,-16.907,46.631,-245.605
0.463,-2.042,0.021,-9.033,40.771,-194.275
0.472,-2.075,0.020,-8.301,32.837,-145.081
0.452,-2.052,0.049,-9.399,24.536,-98.694
0.454,-1.956,0.095,-11.230,18.372,-53.589
0.456,-1.810,0.142,-8.911,14.343,-13.977
0.459,-1.643,0.184,-5.066,13.306,17.212
0.449,-1.508,0.192,-0.244,15.442,40.710
0.441,-1.386,0.162,3.601,20.386,58.777
0.435,-1.275,0.108,10.620,23.926,72.632
0.449,-1.178,0.060,18.799,22.644,82.947
0.473,-1.103,0.047,23.010,15.747,91.064
0.496,-1.058,0.067,24.780,6.653,96.558
0.515,-1.037,0.090,27.710,-0.427,101.624
0.542,-1.021,0.113,30.212,-4.578,108.154
0.570,-0.996,0.126,31.738,-7.202,115.601
0.586,-0.925,0.135,32.410,-8.362,124.573
0.615,-0.838,0.139,34.180,-8.850,132.385
0.642,-0.753,0.151,36.316,-11.169,137.451
0.670,-0.678,0.168,37.476,-14.099,139.160
0.698,-0.635,0.192,37.476,-16.785,138.000
0.727,-0.611,0.220,35.217,-18.188,135.376
0.737,-0.586,0.245,33.508,-17.273,133.484
0.748,-0.553,0.253,33.997,-14.038,133.118
0.765,-0.517,0.249,33.386,-9.033,132.996
0.772,-0.482,0.227,31.189,-3.174,132.385
0.776,-0.434,0.197,29.236,1.282,131.470
0.783,-0.383,0.159,26.672,4.944,129.578
0.794,-0.344,0.124,23.437,6.714,126.465
0.805,-0.306,0.100,18.982,6.165,122.864
0.812,-0.262,0.089,14.893,4.211,118.286
0.832,-0.230,0.088,12.390,1.587,111.877
0.853,-0.224,0.090,9.888,-0.427,103.271
0.864,-0.244,0.094,7.141,-0.916,94.299
0.841,-0.267,0.097,4.089,-0.061,86.914
0.885,-0.279,0.086,4.822,0.977,82.581
0.872,-0.312,0.055,7.141,1.404,78.369
0.911,-0.275,0.067,-1.099,0.610,78.064
0.890,-0.246,0.087,-0.244,-1.099,78.247
0.910,-0.241,0.087,5.005,-0.854,74.402
0.912,-0.244,0.092,3.784,-0.061,68.970
0.911,-0.260,0.086,1.770,0.732,63.477
0.922,-0.267,0.089,0.916,0.610,60.303
0.927,-0.272,0.091,4.700,-0.122,58.655
0.933,-0.269,0.093,6.226,-0.061,57.068
0.936,-0.266,0.090,5.920,0.549,55.603
0.938,-0.266,0.080,6.592,1.282,53.833
0.934,-0.274,0.072,7.019,1.709,51.941
0.938,-0.289,0.057,6.897,2.319,50.659
0.938,-0.296,0.049,6.042,1.343,50.537
0.943,-0.292,0.058,4.761,-1.465,52.063
0.945,-0.277,0.079,4.089,-4.456,53.345
0.949,-0.249,0.097,3.845,-5.981,54.565
0.952,-0.228,0.099,4.456,-5.310,54.688
0.955,-0.219,0.091,5.920,-3.967,53.101
0.957,-0.211,0.081,6.104,-3.479,51.758
0.956,-0.200,0.073,6.897,-4.272,51.025
0.963,-0.196,0.074,7.568,-5.554,50.476
0.961,-0.185,0.081,6.592,-6.714,50.293
0.958,-0.175,0.091,6.653,-7.935,50.415
0.960,-0.162,0.100,6.836,-8.240,50.476
0.964,-0.149,0.105,7.263,-8.118,50.293
0.965,-0.145,0.110,7.935,-8.118,49.683
0.969,-0.136,0.112,7.385,-7.690,48.950
0.967,-0.117,0.109,8.484,-7.019,48.401
0.972,-0.094,0.103,10.315,-6.836,48.035
0.972,-0.068,0.103,10.132,-7.751,47.058
0.977,-0.053,0.108,8.423,-9.277,44.678
0.979,-0.051,0.119,6.409,-11.108,41.687
0.983,-0.044,0.131,4.089,-12.451,38.879
0.984,-0.036,0.142,4.028,-12.451,36.377
0.985,-0.033,0.151,5.798,-11.963,33.447
0.985,-0.029,0.156,7.507,-11.353,30.762
0.990,-0.036,0.155,8.118,-10.437,27.832
0.990,-0.033,0.156,7.324,-8.484,25.452
0.989,-0.033,0.156,7.446,-7.507,23.987
0.989,-0.032,0.153,6.897,-6.348,22.766
0.989,-0.027,0.150,4.456,-5.066,21.790
0.987,-0.023,0.147,3.052,-4.395,20.874
0.987,-0.019,0.152,1.892,-4.578,19.836
0.989,-0.018,0.161,0.183,-5.005,18.188
0.989,-0.030,0.167,-0.183,-4.700,15.930
0.987,-0.046,0.172,-0.244,-3.479,14.221
0.987,-0.049,0.172,0.000,-2.075,13.794
0.990,-0.050,0.163,2.319,-0.610,13.794
0.990,-0.039,0.153,3.906,0.244,14.038
0.988,-0.027,0.143,4.517,0.549,14.038
0.991,-0.023,0.135,4.395,0.061,13.245
0.991,-0.031,0.138,2.625,-0.610,11.963
0.991,-0.044,0.150,0.977,-1.526,10.681
0.990,-0.047,0.161,0.061,-1.892,10.315
0.989,-0.036,0.167,0.488,-1.526,10.559
0.987,-0.022,0.166,2.258,-1.038,10.254
0.992,-0.023,0.161,3.845,-0.610,8.972
0.989,-0.029,0.160,2.319,0.000,6.775
0.987,-0.041,0.158,1.404,0.793,5.310
0.987,-0.047,0.155,1.465,1.221,5.066
0.988,-0.054,0.153,1.526,1.099,5.310
0.987,-0.054,0.154,0.977,0.854,5.493
0.988,-0.054,0.154,0.549,0.793,6.104
0.988,-0.047,0.152,0.488,0.916,6.592
0.989,-0.040,0.145,2.014,0.732,6.836
0.986,-0.039,0.142,2.991,0.061,6.653

0.861,0.928,0.408,4.761,-0.549,20.569
0.809,1.174,0.397,28.198,13.977,-19.470
0.799,1.405,0.336,24.658,33.447,-60.486
0.697,1.536,0.246,4.089,46.570,-125.549
0.562,1.402,0.141,-20.996,48.767,-219.971
0.388,0.905,0.127,-70.129,37.903,-317.566
0.299,0.357,0.213,-104.919,15.686,-376.892
0.291,0.019,0.342,-111.755,-2.502,-392.273
0.285,-0.172,0.438,-91.675,-6.653,-388.611
0.283,-0.260,0.451,-72.815,4.272,-379.028
0.288,-0.347,0.394,-67.261,22.278,-369.873
0.311,-0.491,0.350,-63.965,33.203,-369.080
0.334,-0.673,0.333,-59.753,36.438,-379.150
0.362,-0.900,0.285,-48.035,41.077,-398.376
0.374,-1.200,0.206,-38.940,48.218,-410.217
0.356,-1.529,0.152,-41.992,52.307,-390.564
0.424,-1.748,0.111,-46.021,49.744,-342.529
0.446,-1.950,0.097,-43.091,43.823,-301.514
0.447,-2.170,0.075,-33.142,39.795,-259.583
0.445,-2.325,0.041,-29.907,38.086,-203.613
0.458,-2.364,0.020,-31.311,34.607,-133.484
0.480,-2.231,0.032,-23.437,25.574,-57.007
0.514,-1.929,0.095,-9.766,14.099,9.338
0.527,-1.652,0.163,-1.526,8.545,52.429
0.515,-1.462,0.181,7.263,10.376,76.111
0.502,-1.303,0.142,16.174,16.052,92.041
0.500,-1.145,0.086,24.963,18.372,104.553
0.522,-1.033,0.057,29.846,14.099,113.831
0.527,-0.959,0.064,29.419,5.981,119.019
0.545,-0.903,0.085,26.733,-0.732,123.169
0.558,-0.848,0.107,25.574,-5.249,126.709
0.573,-0.784,0.123,26.306,-8.301,129.822
0.594,-0.701,0.132,26.001,-10.620,132.080
0.630,-0.622,0.139,24.292,-12.695,131.714
0.670,-0.574,0.160,21.912,-15.503,128.113
0.709,-0.567,0.195,19.775,-17.944,121.887
0.740,-0.585,0.232,19.714,-18.494,116.272
0.764,-0.598,0.256,21.362,-16.113,113.342
0.780,-0.597,0.256,23.804,-10.437,113.037
0.782,-0.570,0.240,25.146,-3.235,114.807
0.788,-0.535,0.210,26.611,1.648,116.089
0.793,-0.501,0.186,25.146,4.700,116.943
0.801,-0.471,0.169,20.386,5.737,117.126
0.810,-0.442,0.156,16.724,6.042,116.333
0.804,-0.415,0.138,14.648,6.287,115.662
0.819,-0.381,0.120,12.695,7.080,115.051
0.836,-0.333,0.112,11.536,6.531,113.525
0.836,-0.315,0.118,12.878,3.601,108.948
0.845,-0.314,0.123,12.939,2.380,103.027
0.853,-0.314,0.117,12.207,3.357,97.839
0.861,-0.309,0.101,13.977,5.005,93.994
0.861,-0.305,0.087,16.174,5.798,90.576
0.872,-0.289,0.068,16.846,5.859,88.013
0.880,-0.283,0.061,16.846,3.906,84.717
0.874,-0.283,0.069,15.015,1.221,80.811
0.922,-0.295,0.077,12.451,-0.671,77.332
0.865,-0.317,0.083,11.353,-1.831,73.914
0.933,-0.319,0.074,4.578,-1.282,72.327
0.911,-0.306,0.102,1.953,-3.052,74.707
0.930,-0.303,0.112,7.019,-3.235,75.684
0.922,-0.301,0.112,12.024,-2.136,75.378
0.928,-0.262,0.098,12.817,-0.916,76.111
0.938,-0.237,0.086,14.893,-1.038,75.867
0.942,-0.219,0.097,15.503,-3.357,74.036
0.946,-0.221,0.112,13.855,-5.493,71.045
0.952,-0.228,0.116,12.329,-5.127,68.970
0.952,-0.232,0.116,11.230,-4.211,68.298
0.950,-0.223,0.109,10.803,-3.235,68.848
0.948,-0.199,0.099,11.414,-2.869,70.068
0.949,-0.161,0.087,11.108,-3.052,70.618
0.948,-0.121,0.077,10.498,-3.662,70.251
0.952,-0.086,0.075,11.169,-5.371,68.542
0.958,-0.065,0.081,11.536,-7.507,65.369
0.966,-0.067,0.097,10.193,-9.216,61.340
0.965,-0.082,0.117,8.850,-9.949,56.702
0.965,-0.089,0.126,9.949,-8.972,53.955
0.970,-0.088,0.120,12.817,-6.775,52.551
0.970,-0.076,0.112,13.916,-5.127,51.636
0.969,-0.064,0.104,14.404,-4.456,50.232
0.966,-0.058,0.091,14.832,-4.333,48.523
0.972,-0.045,0.085,14.465,-5.310,47.485
0.974,-0.057,0.094,15.320,-7.324,45.837
0.974,-0.059,0.110,13.184,-8.972,44.739
0.977,-0.048,0.116,14.099,-9.399,44.800
0.975,-0.025,0.116,17.761,-9.827,44.922
0.981,0.001,0.122,19.409,-10.925,44.373
0.989,0.004,0.133,20.935,-12.329,41.382
0.987,-0.002,0.149,19.775,-13.428,37.842
1.001,-0.012,0.164,18.005,-13.306,35.278
0.983,-0.012,0.180,17.456,-12.756,34.424
0.991,-0.001,0.184,17.456,-11.536,34.180
0.988,0.017,0.189,16.602,-10.559,34.302
0.991,0.024,0.190,17.273,-8.850,32.959
0.989,0.026,0.191,14.893,-7.446,31.189
0.992,0.025,0.192,11.230,-5.310,28.931
0.990,0.031,0.193,8.972,-4.211,27.100
0.990,0.037,0.190,9.521,-2.930,25.757
0.988,0.043,0.186,10.437,-1.892,24.231
0.989,0.056,0.179,10.437,-1.038,22.766
0.986,0.065,0.173,10.742,-0.122,21.240
0.983,0.076,0.162,11.230,0.305,19.287
0.985,0.080,0.151,11.536,0.671,17.151
0.982,0.073,0.148,9.277,0.427,15.015
0.980,0.065,0.149,6.104,-0.183,12.939
0.983,0.056,0.153,4.272,-0.916,11.230
0.985,0.049,0.161,3.357,-1.343,10.193
0.986,0.052,0.171,2.014,-1.465,9.583
0.986,0.053,0.175,2.441,-1.221,9.216
0.988,0.050,0.173,1.526,-0.122,8.240
0.986,0.044,0.168,0.366,1.221,7.080
0.986,0.038,0.161,0.732,1.709,6.104
0.986,0.037,0.154,1.160,2.136,5.737
0.984,0.043,0.153,1.404,2.075,5.554
0.985,0.039,0.157,2.014,1.221,4.883
0.988,0.027,0.163,0.793,0.488,3.479
0.986,0.024,0.168,-0.427,0.793,2.563
0.989,0.028,0.162,0.671,1.587,2.991
0.990,0.043,0.153,1.160,2.747,3.662
0.988,0.032,0.147,0.916,2.686,2.869

0.840,1.302,0.134,3.967,2.930,-138.672
0.662,1.195,0.238,-30.029,-1.953,-216.370
0.522,0.958,0.253,-56.335,1.160,-278.259
0.367,0.808,0.233,-66.895,5.188,-320.374
0.281,0.741,0.223,-70.374,2.930,-350.159
0.143,0.638,0.245,-72.144,0.366,-380.615
-0.003,0.465,0.253,-69.336,3.418,-413.757
-0.122,0.304,0.251,-60.608,7.935,-442.322
-0.246,0.186,0.223,-50.171,13.428,-463.013
-0.354,0.021,0.158,-38.757,20.691,-481.262
-0.414,-0.227,0.122,-32.837,23.437,-498.901
-0.455,-0.519,0.115,-36.011,21.423,-514.832
-0.447,-0.836,0.103,-38.269,20.020,-536.926
-0.391,-1.229,0.129,-45.044,14.465,-558.350
-0.326,-1.896,0.187,-60.913,1.099,-549.866
-0.169,-2.256,0.229,-88.257,-13.611,-477.051
-0.062,-2.498,0.374,-124.695,-23.621,-405.090
-0.052,-2.816,0.500,-124.329,-22.095,-385.925
-0.026,-3.230,0.513,-109.802,-6.958,-368.042
-0.090,-3.458,0.487,-113.342,11.108,-299.194
-0.097,-3.534,0.430,-87.891,18.921,-182.495
-0.064,-3.148,0.406,-31.799,11.414,-34.973
-0.021,-2.358,0.470,12.024,-2.991,91.553
0.039,-1.773,0.523,18.494,-7.019,145.691
0.064,-1.467,0.556,16.663,-3.845,154.968
0.096,-1.326,0.575,21.362,-0.610,152.771
0.125,-1.212,0.573,25.818,3.784,155.151
0.167,-1.090,0.541,26.489,13.855,162.537
0.200,-0.977,0.485,26.428,25.879,169.373
0.239,-0.885,0.424,26.001,36.072,173.218
0.270,-0.833,0.358,26.733,43.945,173.828
0.292,-0.822,0.284,28.137,49.500,172.180
0.311,-0.820,0.212,29.724,53.345,170.654
0.321,-0.789,0.149,33.203,53.589,171.326
0.345,-0.717,0.113,35.645,50.354,173.279
0.380,-0.652,0.088,37.537,45.166,172.363
0.424,-0.607,0.069,38.818,39.917,166.931
0.466,-0.582,0.060,36.255,32.471,159.485
0.511,-0.581,0.069,30.151,24.109,150.391
0.546,-0.595,0.097,24.292,15.625,140.991
0.575,-0.631,0.130,20.813,9.766,132.935
0.591,-0.652,0.159,17.700,7.690,128.418
0.612,-0.645,0.180,16.602,8.362,127.686
0.629,-0.619,0.187,18.250,10.437,128.174
0.637,-0.604,0.186,21.301,12.512,127.808
0.668,-0.581,0.180,18.982,14.465,126.282
0.675,-0.534,0.182,11.414,16.541,125.244
0.689,-0.501,0.167,9.399,19.043,122.192
0.715,-0.488,0.141,10.620,22.278,116.760
0.731,-0.487,0.118,10.376,23.437,111.267
0.745,-0.501,0.103,10.925,21.912,105.042
0.754,-0.513,0.092,11.902,19.531,100.952
0.766,-0.519,0.088,13.367,17.456,98.572
0.783,-0.526,0.090,14.771,15.076,96.924
0.861,-0.524,0.088,16.541,12.634,96.313
0.760,-0.510,0.096,24.780,11.353,94.971
0.794,-0.550,0.106,21.423,9.705,92.224
0.816,-0.489,0.141,14.282,8.545,97.046
0.814,-0.469,0.126,31.677,11.230,95.947
0.815,-0.449,0.095,35.706,15.869,92.224
0.837,-0.447,0.055,26.184,19.043,87.036
0.828,-0.475,0.033,16.235,19.043,82.642
0.830,-0.457,0.023,11.169,15.686,84.839
0.847,-0.426,0.017,13.489,12.207,87.280
0.851,-0.382,0.019,13.428,8.545,87.524
0.859,-0.352,0.028,12.573,5.371,86.243
0.868,-0.364,0.037,13.550,2.869,82.214
0.876,-0.388,0.045,13.672,1.648,78.064
0.884,-0.396,0.051,13.184,1.160,76.111
0.887,-0.387,0.053,14.221,0.671,76.660
0.894,-0.365,0.047,15.381,0.366,78.003
0.900,-0.338,0.038,16.541,-0.305,78.613
0.904,-0.314,0.031,17.944,-1.282,78.186
0.916,-0.331,0.030,18.127,-3.357,76.416
0.914,-0.339,0.044,15.503,-5.859,74.890
0.920,-0.343,0.058,15.198,-7.019,75.256
0.921,-0.348,0.060,19.958,-6.775,75.989
0.917,-0.331,0.051,25.208,-6.226,77.454
0.919,-0.291,0.040,28.992,-5.737,79.651
0.922,-0.246,0.030,31.860,-6.714,80.872
0.927,-0.205,0.025,32.104,-8.423,80.627
0.932,-0.165,0.024,28.809,-10.742,78.979
0.944,-0.131,0.026,24.292,-13.123,76.294
0.949,-0.098,0.034,19.592,-15.869,73.181
0.963,-0.079,0.041,17.212,-18.066,69.763
0.960,-0.058,0.055,15.625,-20.813,66.162
0.974,-0.031,0.074,13.367,-23.315,62.561
0.981,-0.025,0.092,12.756,-24.475,57.373
0.982,-0.032,0.106,12.146,-24.170,49.805
0.990,-0.052,0.116,9.949,-21.912,40.710
0.989,-0.066,0.126,7.019,-18.982,33.508
0.990,-0.083,0.131,7.019,-17.151,29.846
0.990,-0.091,0.136,9.766,-15.747,27.832
0.991,-0.099,0.138,12.329,-15.137,26.917
0.990,-0.099,0.145,12.573,-14.771,26.428
0.985,-0.091,0.152,11.108,-14.099,25.757
0.988,-0.085,0.154,10.132,-12.634,25.269
0.995,-0.082,0.146,9.277,-10.254,24.414
0.993,-0.071,0.148,5.432,-8.545,23.743
0.996,-0.082,0.152,4.089,-8.484,21.973
0.994,-0.091,0.156,3.601,-7.751,20.386
0.991,-0.069,0.156,2.319,-5.676,20.203
0.990,-0.045,0.147,5.188,-3.845,20.081
0.987,-0.043,0.134,8.728,-3.296,18.311
0.999,-0.045,0.133,7.019,-2.991,15.564
0.991,-0.053,0.144,3.296,-3.235,12.268
0.990,-0.064,0.150,1.404,-2.869,9.644
0.993,-0.072,0.149,0.854,-1.404,8.118
0.990,-0.086,0.142,1.465,-0.366,7.080
0.989,-0.106,0.131,2.075,0.183,6.653
0.985,-0.116,0.127,0.854,0.366,6.958
0.989,-0.115,0.125,0.671,0.000,8.179
0.989,-0.100,0.130,2.441,-1.038,9.644
0.992,-0.085,0.131,4.700,-1.587,10.864
0.994,-0.066,0.139,5.005,-1.526,11.047
0.987,-0.057,0.146,3.357,-1.404,10.010
0.997,-0.064,0.139,1.648,-0.977,7.935
0.988,-0.074,0.137,0.122,0.000,6.165
0.985,-0.076,0.135,-0.244,0.732,4.944

0.912,1.397,0.506,-14.465,15.198,19.043
0.803,1.625,0.488,7.996,31.067,-54.077
0.694,1.756,0.399,-13.672,47.852,-132.874
0.466,1.689,0.291,-83.984,59.448,-243.225
0.209,1.085,0.237,-155.457,57.617,-369.934
0.053,0.418,0.269,-194.763,38.025,-447.083
0.002,0.010,0.353,-186.218,14.404,-467.102
0.010,-0.196,0.437,-151.672,3.784,-460.144
0.023,-0.338,0.482,-123.718,10.315,-449.890
0.062,-0.525,0.421,-101.318,27.100,-449.402
0.067,-0.775,0.303,-81.726,44.189,-465.576
0.072,-1.094,0.160,-66.284,56.946,-484.375
0.120,-1.529,0.019,-57.068,59.937,-479.980
0.171,-1.977,-0.024,-63.904,49.072,-422.485
0.244,-2.160,-0.033,-61.340,33.447,-357.544
0.269,-2.371,-0.044,-39.124,23.254,-311.340
0.273,-2.554,-0.052,-34.241,18.188,-258.301
0.299,-2.638,-0.031,-39.368,10.376,-185.181
0.309,-2.516,0.043,-31.067,-2.502,-97.717
0.352,-2.176,0.125,-5.676,-14.465,-16.785
0.383,-1.825,0.202,8.423,-17.456,35.645
0.388,-1.593,0.256,11.597,-13.794,62.134
0.387,-1.454,0.271,18.799,-7.874,77.209
0.378,-1.318,0.246,27.710,-1.221,90.576
0.393,-1.183,0.192,37.109,4.395,102.356
0.420,-1.058,0.150,42.847,5.127,111.450
0.450,-0.966,0.139,41.992,1.099,117.676
0.487,-0.902,0.152,39.917,-4.395,120.239
0.511,-0.876,0.171,39.551,-9.460,120.605
0.535,-0.848,0.183,38.879,-12.024,121.643
0.560,-0.811,0.187,39.001,-12.634,123.962
0.590,-0.760,0.186,41.626,-13.428,126.221
0.623,-0.722,0.187,44.922,-14.465,127.258
0.648,-0.682,0.200,45.105,-15.991,126.648
0.673,-0.640,0.220,41.992,-17.334,125.854
0.696,-0.622,0.231,38.330,-16.846,124.390
0.715,-0.605,0.234,33.142,-13.489,122.253
0.724,-0.603,0.229,31.250,-10.132,119.812
0.733,-0.585,0.224,29.114,-7.202,118.774
0.738,-0.560,0.224,27.649,-4.761,118.164
0.754,-0.537,0.216,26.672,-2.380,116.638
0.759,-0.530,0.206,23.193,0.610,114.563
0.762,-0.503,0.189,18.738,5.371,113.403
0.769,-0.475,0.155,16.907,10.193,112.671
0.774,-0.454,0.119,16.357,13.672,111.267
0.791,-0.424,0.091,14.526,14.587,108.459
0.799,-0.400,0.072,13.855,13.184,104.858
0.806,-0.392,0.062,13.977,10.803,100.037
0.819,-0.383,0.064,11.963,8.484,95.093
0.826,-0.366,0.066,10.254,6.897,90.820
0.842,-0.361,0.062,10.437,6.409,86.060
0.837,-0.367,0.061,9.705,6.409,81.238
0.832,-0.343,0.047,11.353,6.653,76.965
0.861,-0.386,0.028,8.667,5.615,70.984
0.877,-0.366,0.066,2.258,2.014,71.777
0.880,-0.359,0.071,13.245,1.343,69.763
0.877,-0.341,0.067,15.137,2.380,66.040
0.899,-0.359,0.052,10.498,4.089,59.814
0.889,-0.411,0.045,5.371,3.845,54.260
0.897,-0.401,0.053,0.488,1.709,55.969
0.904,-0.374,0.053,3.845,-0.183,59.021
0.909,-0.347,0.057,5.676,-1.465,59.387
0.920,-0.350,0.067,2.808,-2.625,57.495
0.924,-0.364,0.076,1.038,-2.625,54.932
0.923,-0.364,0.078,1.099,-2.075,54.810
0.927,-0.346,0.073,1.709,-1.770,56.458
0.927,-0.319,0.069,1.343,-2.075,57.800
0.928,-0.297,0.071,0.793,-3.235,57.922
0.936,-0.282,0.076,0.793,-4.578,56.885
0.940,-0.272,0.083,0.732,-5.493,55.603
0.944,-0.278,0.087,0.916,-5.432,54.016
0.946,-0.289,0.087,0.916,-4.333,52.307
0.941,-0.284,0.083,0.671,-3.113,52.734
0.941,-0.261,0.077,0.977,-2.502,54.199
0.945,-0.234,0.073,1.831,-2.869,54.565
0.948,-0.217,0.075,1.831,-3.784,53.589
0.949,-0.204,0.080,1.099,-5.066,51.758
0.954,-0.199,0.080,1.526,-5.554,49.683
0.958,-0.186,0.078,1.953,-4.883,47.974
0.964,-0.177,0.077,3.113,-4.517,46.082
0.965,-0.172,0.076,4.456,-4.639,44.128
0.969,-0.169,0.080,4.700,-4.822,41.992
0.976,-0.176,0.085,5.188,-5.798,39.246
0.972,-0.189,0.088,4.944,-7.202,37.048
0.974,-0.200,0.094,4.578,-8.301,35.706
0.977,-0.214,0.098,6.714,-8.972,34.973
0.977,-0.213,0.106,7.690,-9.583,35.583
0.976,-0.200,0.114,9.399,-10.193,37.415
0.981,-0.186,0.121,10.071,-10.559,39.246
0.975,-0.165,0.126,8.850,-10.193,40.283
0.975,-0.150,0.128,8.301,-9.399,40.771
0.975,-0.136,0.129,6.897,-8.911,40.527
0.975,-0.118,0.125,5.371,-8.606,40.161
0.979,-0.100,0.123,4.700,-8.545,39.795
0.980,-0.078,0.129,3.662,-8.484,39.001
0.982,-0.056,0.136,3.784,-8.362,37.659
0.980,-0.044,0.136,5.066,-7.202,35.461
0.982,-0.038,0.134,5.920,-5.676,32.288
0.993,-0.031,0.127,5.920,-4.333,29.175
0.974,-0.034,0.124,6.958,-3.662,26.123
0.989,-0.042,0.115,7.202,-3.662,23.437
0.985,-0.040,0.124,5.310,-4.456,21.973
0.990,-0.046,0.131,5.371,-4.822,20.142
0.984,-0.048,0.138,5.066,-4.395,19.348
0.986,-0.039,0.136,3.662,-3.174,18.555
0.990,-0.036,0.131,3.906,-2.563,17.151
0.987,-0.035,0.130,4.517,-2.686,15.381
0.992,-0.042,0.129,3.906,-2.625,13.611
0.988,-0.045,0.131,3.906,-2.075,12.024
0.985,-0.040,0.128,5.066,-1.648,11.108
0.990,-0.039,0.125,5.920,-1.526,10.010
0.988,-0.039,0.127,5.371,-1.709,8.423
0.989,-0.042,0.127,4.761,-2.258,6.226
0.990,-0.053,0.132,4.028,-2.686,5.005
0.991,-0.065,0.140,1.831,-2.625,4.150
0.991,-0.076,0.152,0.122,-2.502,3.906
0.989,-0.083,0.161,-0.244,-2.197,3.906
0.994,-0.082,0.161,0.732,-1.404,4.211
0.993,-0.082,0.158,2.136,-0.610,4.272

0.881,1.138,0.331,67.322,35.339,-70.129
0.816,1.263,0.295,61.035,48.462,-143.372
0.637,1.274,0.255,22.522,58.228,-217.834
0.480,1.083,0.195,-29.724,63.782,-293.762
0.325,0.768,0.168,-58.960,59.570,-355.652
0.183,0.503,0.190,-67.444,49.011,-393.799
0.094,0.283,0.224,-60.181,41.687,-416.626
0.025,0.058,0.276,-49.927,42.542,-434.143
-0.021,-0.170,0.348,-41.199,47.363,-448.792
-0.020,-0.418,0.367,-25.940,55.420,-461.670
-0.019,-0.660,0.306,-12.939,71.655,-474.365
-0.005,-0.953,0.205,-5.005,91.614,-494.995
-0.007,-1.376,0.070,-7.080,104.309,-509.155
-0.015,-2.053,-0.061,-27.405,110.413,-475.891
0.033,-2.370,-0.145,-55.969,106.812,-380.493
0.119,-2.535,-0.230,-49.622,94.116,-292.419
0.182,-2.547,-0.250,-47.119,79.346,-212.219
0.228,-2.456,-0.207,-53.589,62.683,-141.174
0.290,-2.316,-0.131,-43.884,44.739,-84.106
0.328,-2.163,-0.039,-28.320,31.555,-38.879
0.346,-2.054,0.021,-7.507,26.672,-4.883
0.300,-1.929,0.052,13.733,27.710,24.536
0.269,-1.767,0.027,36.133,31.128,53.223
0.264,-1.596,-0.004,53.528,31.433,78.125
0.268,-1.451,-0.011,57.617,26.245,95.947
0.279,-1.349,-0.008,56.274,17.883,109.070
0.289,-1.273,-0.005,51.025,10.681,119.446
0.310,-1.221,-0.016,47.424,5.859,128.113
0.334,-1.165,-0.034,44.556,2.136,137.329
0.356,-1.079,-0.059,39.551,-0.732,147.461
0.370,-0.973,-0.076,30.945,-3.296,155.762
0.403,-0.887,-0.094,29.846,-7.874,161.255
0.444,-0.805,-0.094,28.320,-14.038,164.307
0.482,-0.739,-0.082,26.489,-20.264,164.062
0.524,-0.696,-0.073,27.405,-25.024,161.255
0.562,-0.665,-0.064,28.381,-27.771,156.860
0.593,-0.644,-0.054,27.771,-29.663,152.832
0.619,-0.628,-0.036,27.893,-31.860,148.926
0.643,-0.614,-0.022,28.931,-33.936,146.179
0.659,-0.594,-0.004,28.320,-34.546,144.958
0.683,-0.572,0.011,26.855,-33.997,143.921
0.702,-0.560,0.028,25.452,-33.081,142.639
0.712,-0.519,0.053,20.752,-31.982,142.578
0.730,-0.471,0.070,17.334,-29.663,142.944
0.749,-0.431,0.071,14.282,-26.123,141.418
0.778,-0.398,0.062,8.545,-20.935,136.841
0.787,-0.382,0.045,2.869,-16.174,130.920
0.803,-0.364,0.031,-1.038,-12.878,125.549
0.820,-0.337,0.022,-3.662,-10.864,121.399
0.834,-0.318,0.020,-4.028,-10.559,116.516
0.806,-0.302,0.027,-3.357,-11.230,110.413
0.878,-0.298,0.028,-1.465,-11.108,105.042
0.852,-0.337,-0.010,3.845,-10.742,96.619
0.885,-0.285,0.027,-3.296,-11.047,94.055
0.883,-0.232,0.037,2.197,-10.742,93.628
0.898,-0.211,0.014,12.512,-7.874,86.060
0.902,-0.222,-0.004,8.240,-4.333,75.500
0.906,-0.284,-0.027,-1.465,-2.380,63.965
0.911,-0.337,-0.021,-9.277,-3.845,58.533
0.911,-0.356,-0.010,-7.629,-7.019,59.265
0.915,-0.344,-0.002,-5.615,-8.423,61.462
0.917,-0.323,0.003,-6.775,-8.667,62.439
0.922,-0.308,0.009,-5.920,-8.423,60.852
0.928,-0.298,0.015,-4.456,-8.179,58.167
0.937,-0.304,0.008,-3.052,-7.690,54.871
0.936,-0.315,0.000,-2.380,-7.324,52.307
0.936,-0.314,-0.006,-2.930,-7.812,52.063
0.945,-0.304,-0.004,-2.502,-9.338,53.406
0.948,-0.290,0.002,-2.014,-11.536,54.626
0.948,-0.279,0.014,-2.563,-13.062,55.115
0.950,-0.278,0.027,-3.479,-14.160,54.626
0.950,-0.270,0.040,-4.150,-14.404,54.077
0.954,-0.245,0.044,-3.113,-13.123,54.443
0.953,-0.217,0.035,0.488,-11.597,54.260
0.956,-0.203,0.021,2.930,-10.315,52.673
0.955,-0.191,0.017,1.892,-10.254,50.781
0.959,-0.200,0.013,1.282,-11.292,48.645
0.955,-0.202,0.021,0.793,-12.878,47.485
0.962,-0.197,0.029,1.160,-15.442,47.546
0.967,-0.189,0.039,2.502,-17.212,48.096
0.969,-0.170,0.052,2.380,-18.066,48.706
0.978,-0.145,0.060,3.113,-18.066,48.584
0.979,-0.126,0.066,5.249,-18.005,47.546
0.982,-0.105,0.070,6.165,-18.005,46.082
0.983,-0.085,0.081,5.310,-17.944,44.006
0.984,-0.090,0.089,5.066,-17.883,40.833
0.984,-0.099,0.102,3.967,-17.700,37.598
0.984,-0.101,0.112,2.380,-17.090,35.767
0.984,-0.084,0.117,2.686,-16.113,34.912
0.983,-0.058,0.116,4.272,-15.381,34.546
0.989,-0.047,0.113,6.714,-14.893,32.715
0.989,-0.037,0.115,6.287,-13.794,29.785
0.982,-0.030,0.119,5.432,-13.062,26.489
0.990,-0.025,0.116,7.141,-12.329,23.071
0.988,-0.037,0.101,9.827,-11.780,19.531
0.989,-0.040,0.103,8.789,-11.536,17.761
0.994,-0.057,0.108,6.531,-11.719,15.747
0.990,-0.052,0.126,1.770,-11.902,14.343
0.987,-0.047,0.137,0.366,-12.146,13.916
0.992,-0.047,0.144,0.488,-11.047,13.000
0.990,-0.039,0.150,-1.221,-9.033,11.963
0.990,-0.045,0.150,-0.854,-7.019,9.827
0.993,-0.054,0.144,0.061,-5.249,7.751
0.992,-0.073,0.144,0.183,-4.150,6.042
0.991,-0.094,0.151,0.488,-3.845,5.127
0.994,-0.119,0.156,1.465,-3.601,5.005
0.994,-0.129,0.156,1.404,-2.380,6.531
0.996,-0.115,0.148,1.709,-0.732,9.094
0.998,-0.097,0.136,3.296,0.244,11.292
0.998,-0.083,0.128,4.028,0.610,11.597
0.998,-0.070,0.124,3.540,0.366,10.681
0.994,-0.065,0.119,4.333,-0.183,9.216
0.991,-0.061,0.117,3.906,-0.244,8.118
0.988,-0.058,0.114,3.418,-0.183,7.263
0.988,-0.065,0.110,3.662,-0.610,6.165
0.984,-0.061,0.116,1.831,-0.854,5.493
0.981,-0.060,0.119,1.709,-0.977,5.249
0.980,-0.063,0.123,2.380,-1.038,4.761
0.986,-0.079,0.125,1.648,-1.160,3.784

0.808,0.749,0.485,36.682,11.902,9.277
0.742,0.940,0.498,44.556,29.541,-4.883
0.739,1.146,0.440,33.875,53.101,-28.015
0.682,1.311,0.344,8.423,77.942,-80.627
0.578,1.348,0.193,-15.442,99.731,-160.156
0.486,1.172,-0.010,-54.810,108.276,-256.592
0.264,0.716,-0.103,-115.845,87.769,-353.333
0.165,0.246,-0.058,-167.419,49.072,-409.424
0.165,-0.136,0.043,-170.959,8.972,-425.964
0.208,-0.405,0.169,-150.757,-18.311,-421.570
0.275,-0.615,0.264,-131.409,-28.015,-419.922
0.307,-0.838,0.298,-114.380,-21.240,-425.232
0.343,-1.086,0.255,-96.680,-5.676,-425.720
0.345,-1.376,0.176,-83.923,8.789,-401.733
0.390,-1.553,0.100,-77.087,19.104,-345.947
0.469,-1.685,0.033,-59.143,18.921,-292.114
0.488,-1.743,0.032,-47.119,11.230,-242.249
0.491,-1.754,0.069,-42.419,3.540,-198.181
0.495,-1.735,0.109,-37.537,0.000,-159.729
0.491,-1.713,0.153,-33.203,-1.770,-126.831
0.462,-1.664,0.208,-28.381,-2.808,-98.877
0.474,-1.622,0.232,-19.836,-1.404,-74.768
0.471,-1.577,0.243,-13.611,1.282,-52.673
0.464,-1.525,0.235,-7.568,5.127,-32.715
0.482,-1.473,0.207,0.061,8.179,-13.794
0.500,-1.421,0.190,6.348,8.606,3.296
0.514,-1.374,0.195,11.780,6.042,20.020
0.522,-1.344,0.198,20.264,3.174,34.912
0.529,-1.305,0.192,26.611,1.770,49.927
0.552,-1.249,0.183,28.931,1.648,65.063
0.564,-1.170,0.174,30.518,1.160,79.956
0.588,-1.105,0.167,33.142,0.061,92.529
0.601,-1.049,0.174,35.095,-1.282,102.783
0.624,-1.002,0.176,37.354,-2.258,111.572
0.631,-0.953,0.179,39.063,-2.502,118.530
0.638,-0.903,0.181,39.917,-2.014,124.878
0.645,-0.856,0.182,40.955,-1.831,130.005
0.642,-0.799,0.185,39.856,-1.831,135.559
0.652,-0.753,0.176,40.283,-1.526,140.442
0.659,-0.699,0.170,38.940,-0.977,144.104
0.667,-0.639,0.164,34.790,-0.610,146.729
0.688,-0.584,0.161,29.907,-0.610,147.705
0.705,-0.545,0.161,26.611,-0.610,146.667
0.716,-0.519,0.156,24.292,-0.549,144.592
0.733,-0.486,0.145,22.156,0.916,142.517
0.747,-0.439,0.132,21.362,2.808,141.663
0.757,-0.385,0.120,21.973,3.845,139.832
0.770,-0.342,0.112,22.095,3.540,135.986
0.798,-0.313,0.111,20.630,2.991,130.676
0.814,-0.313,0.112,20.996,3.357,123.535
0.822,-0.327,0.105,23.682,4.211,115.723
0.822,-0.348,0.094,24.353,5.676,109.619
0.905,-0.339,0.068,21.240,8.179,106.262
0.806,-0.348,0.044,18.921,8.301,102.295
0.868,-0.315,0.043,13.550,6.958,101.379
0.864,-0.271,0.055,13.184,4.211,103.088
0.868,-0.258,0.050,22.461,1.953,100.098
0.890,-0.236,0.059,19.836,2.014,94.849
0.879,-0.237,0.056,15.198,0.854,88.867
0.899,-0.213,0.054,12.268,-0.427,84.778
0.904,-0.184,0.057,11.841,-1.770,81.787
0.912,-0.171,0.061,12.878,-3.235,76.965
0.923,-0.174,0.067,12.024,-4.333,71.167
0.930,-0.194,0.072,10.742,-4.272,64.880
0.937,-0.205,0.069,10.193,-3.784,59.509
0.940,-0.216,0.063,12.512,-3.296,56.030
0.948,-0.237,0.054,14.648,-3.296,53.284
0.951,-0.240,0.058,12.817,-5.066,52.856
0.956,-0.234,0.067,10.437,-8.118,54.138
0.958,-0.214,0.077,8.728,-10.132,55.664
0.957,-0.180,0.083,5.981,-10.803,57.556
0.962,-0.163,0.090,4.150,-10.193,57.495
0.966,-0.148,0.096,2.441,-8.606,54.993
0.964,-0.140,0.098,3.174,-6.836,51.758
0.962,-0.127,0.094,5.005,-5.249,49.072
0.964,-0.111,0.088,6.042,-4.517,46.936
0.964,-0.100,0.087,6.409,-4.578,44.495
0.967,-0.105,0.089,6.653,-5.310,41.382
0.972,-0.119,0.091,5.920,-5.432,38.269
0.971,-0.123,0.092,4.761,-4.883,36.316
0.976,-0.123,0.087,5.005,-4.028,35.278
0.976,-0.118,0.083,5.188,-3.540,34.241
0.980,-0.106,0.083,4.578,-3.723,33.630
0.984,-0.092,0.087,3.784,-4.883,33.630
0.985,-0.091,0.094,3.052,-6.653,32.776
0.987,-0.099,0.109,1.099,-8.179,31.250
0.987,-0.105,0.125,-0.244,-9.216,29.053
0.990,-0.123,0.132,0.610,-8.850,26.978
0.990,-0.125,0.135,1.160,-6.836,26.794
0.990,-0.117,0.129,1.648,-4.395,29.175
0.988,-0.095,0.121,3.052,-3.357,31.616
0.989,-0.066,0.116,2.930,-3.113,32.715
0.988,-0.048,0.113,2.197,-3.296,31.799
0.988,-0.040,0.108,1.465,-4.333,29.541
0.988,-0.033,0.107,-0.061,-5.188,26.978
0.983,-0.024,0.102,-0.854,-5.737,24.536
0.977,-0.025,0.101,-0.183,-6.104,22.217
0.983,-0.028,0.107,-1.099,-6.348,20.325
0.988,-0.035,0.119,-2.625,-6.470,18.860
0.985,-0.032,0.130,-4.333,-5.737,17.334
0.984,-0.032,0.134,-5.737,-4.272,16.968
0.987,-0.026,0.135,-8.240,-2.686,17.090
0.988,-0.025,0.135,-9.216,-1.709,16.479
0.991,-0.030,0.139,-9.521,-1.831,15.198
0.994,-0.043,0.147,-10.803,-2.380,13.794
0.994,-0.045,0.152,-12.329,-1.709,13.123
0.998,-0.043,0.149,-11.169,-0.427,13.733
0.998,-0.039,0.143,-9.766,0.793,14.709
0.997,-0.026,0.141,-9.277,1.221,16.541
0.997,-0.017,0.140,-7.996,0.549,17.151
0.995,-0.013,0.143,-6.897,0.000,15.869
0.994,-0.016,0.143,-6.104,0.488,13.855
0.994,-0.018,0.139,-5.737,1.831,12.695
0.990,-0.016,0.134,-4.639,2.625,12.695
0.991,-0.019,0.131,-2.686,2.747,12.634
0.991,-0.025,0.128,-2.014,2.319,12.024
0.987,-0.026,0.125,-2.869,2.258,11.658
0.985,-0.022,0.119,-3.601,2.625,11.841
0.988,-0.014,0.114,-2.625,3.418,11.841

0.857,1.223,-0.010,98.999,22.827,-123.718
0.713,1.203,0.066,51.514,12.207,-197.327
0.569,0.986,0.196,1.343,-1.526,-262.451
0.437,0.736,0.284,-16.174,-7.629,-312.561
0.333,0.600,0.314,-21.423,-3.357,-346.252
0.243,0.510,0.298,-17.334,4.822,-373.413
0.139,0.402,0.255,-12.634,13.245,-401.550
0.059,0.217,0.212,-19.836,20.630,-429.321
0.046,-0.097,0.167,-31.433,23.743,-453.430
0.005,-0.399,0.156,-44.189,22.766,-467.468
-0.004,-0.627,0.181,-49.011,19.714,-471.130
-0.004,-0.900,0.215,-41.321,15.015,-473.877
0.040,-1.248,0.193,-34.912,15.320,-475.769
0.091,-1.791,0.133,-41.321,19.470,-453.430
0.184,-2.146,0.078,-61.951,22.522,-385.132
0.237,-2.392,0.026,-67.688,21.423,-324.280
0.245,-2.550,0.020,-74.829,17.090,-270.569
0.263,-2.648,0.036,-73.975,10.010,-211.792
0.302,-2.702,0.064,-58.167,1.465,-144.775
0.313,-2.509,0.138,-41.016,-9.094,-60.364
0.336,-2.084,0.229,-16.785,-17.273,16.541
0.374,-1.724,0.286,-0.732,-16.907,60.608
0.353,-1.506,0.323,4.150,-11.047,79.041
0.334,-1.381,0.319,8.423,-3.784,88.745
0.317,-1.264,0.299,15.259,1.526,97.961
0.367,-1.138,0.270,19.836,4.089,109.558
0.406,-1.042,0.267,20.691,2.319,118.958
0.435,-1.005,0.275,16.541,0.977,123.291
0.458,-1.016,0.285,12.756,2.686,126.404
0.482,-1.004,0.284,12.756,6.104,133.118
0.489,-0.960,0.273,17.029,10.132,141.602
0.503,-0.893,0.238,20.325,15.442,148.987
0.524,-0.819,0.204,21.606,19.653,153.137
0.551,-0.761,0.181,22.705,19.836,154.480
0.574,-0.706,0.170,23.926,17.395,153.198
0.596,-0.648,0.167,24.841,14.771,150.452
0.638,-0.612,0.166,25.574,12.146,146.484
0.657,-0.581,0.177,21.973,9.216,141.541
0.668,-0.555,0.187,17.334,7.874,136.475
0.683,-0.542,0.192,14.526,8.057,131.470
0.699,-0.530,0.185,12.268,9.521,127.258
0.709,-0.533,0.173,10.437,12.146,123.779
0.713,-0.541,0.165,8.667,14.709,121.216
0.727,-0.519,0.154,6.165,17.212,120.483
0.743,-0.492,0.136,5.310,19.531,120.911
0.753,-0.460,0.114,4.211,21.240,120.972
0.770,-0.430,0.090,2.686,22.522,118.652
0.788,-0.415,0.073,2.808,22.522,114.075
0.809,-0.401,0.066,1.709,20.264,110.107
0.823,-0.400,0.067,-0.244,16.602,105.713
0.836,-0.407,0.074,-2.441,13.855,100.952
0.848,-0.425,0.076,-3.235,12.512,96.985
0.846,-0.425,0.077,-3.113,11.963,95.581
0.781,-0.380,0.085,-2.686,11.780,96.558
0.855,-0.341,0.087,1.282,12.207,97.595
0.873,-0.432,0.029,6.226,10.986,91.431
0.841,-0.362,0.125,-10.803,8.545,97.778
0.891,-0.260,0.113,-2.563,13.245,102.356
0.901,-0.259,0.061,21.179,15.747,89.783
0.891,-0.258,0.025,16.541,16.113,76.721
0.900,-0.299,0.000,3.296,14.099,67.322
0.893,-0.313,0.003,-1.404,7.019,66.589
0.906,-0.290,0.032,0.061,-0.244,70.190
0.911,-0.251,0.051,2.502,-3.479,72.449
0.916,-0.225,0.055,1.709,-4.028,70.557
0.926,-0.207,0.055,-0.122,-3.906,67.017
0.935,-0.191,0.060,-2.136,-4.211,64.575
0.937,-0.173,0.065,-3.235,-5.249,62.500
0.942,-0.158,0.080,-4.333,-6.409,59.509
0.946,-0.149,0.085,-3.662,-7.507,55.115
0.957,-0.156,0.086,-2.686,-7.690,49.866
0.957,-0.170,0.092,-3.357,-7.324,45.227
0.959,-0.190,0.095,-4.395,-6.409,41.199
0.961,-0.200,0.098,-4.089,-5.188,38.635
0.964,-0.220,0.097,-2.686,-4.089,36.560
0.959,-0.221,0.101,-2.930,-2.319,35.217
0.959,-0.207,0.096,-1.648,-1.038,34.851
0.960,-0.189,0.085,2.075,-0.305,33.875
0.963,-0.176,0.075,3.479,-0.183,31.677
0.967,-0.197,0.074,4.028,-1.221,28.198
0.970,-0.224,0.080,2.991,-2.930,24.841
0.971,-0.244,0.090,0.366,-3.906,23.804
0.975,-0.241,0.095,0.122,-4.028,25.574
0.980,-0.227,0.093,1.587,-3.784,27.771
0.980,-0.202,0.094,2.869,-4.089,29.053
0.981,-0.191,0.099,4.517,-5.005,28.931
0.980,-0.194,0.108,4.639,-6.287,27.893
0.982,-0.211,0.114,3.418,-6.653,26.733
0.982,-0.214,0.119,1.831,-5.798,27.222
0.980,-0.205,0.117,3.357,-5.432,29.175
0.980,-0.184,0.110,6.836,-5.249,31.555
0.980,-0.164,0.106,8.850,-5.676,33.325
0.981,-0.151,0.103,8.484,-6.348,34.302
0.977,-0.136,0.105,5.798,-7.568,35.522
0.973,-0.134,0.109,2.930,-9.094,36.316
0.977,-0.139,0.115,0.732,-10.376,37.048
0.981,-0.117,0.130,-2.502,-11.353,39.063
0.961,-0.092,0.142,-1.770,-12.390,41.260
0.985,-0.068,0.143,0.366,-12.146,42.419
0.976,-0.022,0.157,-0.427,-11.353,43.030
0.986,0.001,0.161,2.136,-10.254,40.955
0.988,0.019,0.161,3.540,-8.179,37.109
0.994,0.026,0.156,1.160,-5.371,32.043
0.994,0.018,0.148,-0.977,-3.357,26.306
0.990,0.016,0.149,-2.502,-2.258,21.118
0.988,0.012,0.153,-1.953,-2.075,16.724
0.991,0.001,0.156,-0.671,-2.258,12.451
0.991,-0.006,0.159,-0.977,-1.648,8.362
0.990,-0.020,0.159,-0.854,-0.427,5.249
0.990,-0.048,0.156,0.122,0.488,2.686
0.990,-0.075,0.152,-0.732,1.221,1.038
0.988,-0.087,0.145,-0.854,1.648,1.221
0.989,-0.086,0.137,0.610,1.465,2.869
0.990,-0.072,0.138,1.343,0.977,4.761
0.992,-0.067,0.147,0.916,-0.183,5.310
0.992,-0.083,0.159,0.122,-0.977,4.517
0.994,-0.100,0.167,-0.732,-0.732,3.967
0.992,-0.093,0.171,0.000,0.488,5.188
0.994,-0.075,0.164,3.052,1.831,7.141

0.794,1.295,0.281,-30.640,-23.437,-111.938
0.637,1.332,0.304,-30.823,-18.494,-201.782
0.471,1.195,0.344,-56.580,-13.733,-283.325
0.343,0.877,0.370,-59.692,-9.888,-356.018
0.260,0.574,0.384,-51.697,-7.202,-407.288
0.222,0.332,0.336,-50.354,-2.319,-438.171
0.211,0.057,0.212,-48.889,8.118,-457.947
0.107,-0.165,0.153,-43.884,14.893,-465.027
0.010,-0.354,0.144,-31.677,9.644,-457.520
-0.008,-0.565,0.119,-26.306,3.357,-451.355
-0.027,-0.828,0.074,-26.917,-0.183,-459.534
-0.029,-1.173,-0.046,-22.888,-0.732,-479.675
-0.046,-1.658,-0.122,-32.349,-5.920,-476.135
0.002,-2.083,-0.081,-57.373,-22.949,-403.931
0.122,-2.252,0.008,-50.293,-48.889,-318.726
0.205,-2.328,0.134,-18.677,-69.214,-249.207
0.271,-2.310,0.256,-6.287,-72.876,-185.364
0.292,-2.265,0.344,-4.089,-63.843,-130.127
0.330,-2.212,0.387,-1.831,-49.133,-82.336
0.328,-2.092,0.418,1.892,-36.560,-37.598
0.333,-1.944,0.427,10.559,-26.306,1.831
0.343,-1.799,0.432,16.846,-17.273,36.072
0.324,-1.664,0.444,24.719,-10.132,65.491
0.326,-1.529,0.433,32.959,-4.089,90.515
0.355,-1.386,0.417,38.696,1.221,111.938
0.384,-1.281,0.398,41.687,3.723,128.601
0.396,-1.221,0.389,43.152,4.700,140.747
0.409,-1.175,0.390,46.814,4.822,151.611
0.413,-1.108,0.395,53.101,4.150,163.696
0.421,-1.024,0.385,57.312,6.042,175.049
0.449,-0.938,0.361,54.993,10.559,184.021
0.468,-0.850,0.342,46.936,14.832,188.904
0.490,-0.763,0.321,38.269,17.456,191.772
0.519,-0.690,0.296,31.982,19.409,191.956
0.554,-0.626,0.270,24.536,21.362,189.636
0.579,-0.573,0.253,17.700,22.339,185.547
0.609,-0.544,0.236,13.733,22.217,180.359
0.640,-0.542,0.217,11.536,22.583,173.706
0.649,-0.541,0.198,8.606,23.865,167.603
0.660,-0.527,0.178,8.240,25.574,163.696
0.666,-0.499,0.149,12.085,27.161,161.377
0.675,-0.453,0.119,15.747,28.381,159.546
0.695,-0.409,0.089,16.785,27.954,157.227
0.719,-0.375,0.066,15.259,25.269,153.015
0.734,-0.359,0.055,11.536,21.118,146.851
0.754,-0.348,0.042,6.958,16.968,140.808
0.774,-0.333,0.042,4.456,12.634,135.376
0.786,-0.306,0.050,3.784,7.324,131.531
0.800,-0.275,0.063,2.930,2.808,127.625
0.823,-0.258,0.074,1.526,0.549,122.253
0.846,-0.260,0.086,0.366,-0.549,115.479
0.854,-0.280,0.100,-1.404,-1.770,108.398
0.858,-0.289,0.119,-2.502,-2.380,102.417
0.945,-0.284,0.122,-0.122,-1.343,99.670
0.874,-0.330,0.072,8.301,0.244,95.459
0.852,-0.279,0.132,-2.075,-0.977,96.558
0.921,-0.210,0.152,-1.160,0.977,101.563
0.922,-0.236,0.115,19.104,5.188,95.398
0.916,-0.196,0.099,14.282,7.690,89.111
0.924,-0.209,0.082,8.240,5.859,80.994
0.925,-0.230,0.095,6.714,0.061,77.820
0.936,-0.192,0.119,4.089,-2.869,80.200
0.940,-0.145,0.124,6.958,-3.235,80.322
0.946,-0.116,0.119,9.460,-2.441,76.294
0.947,-0.119,0.119,7.446,-1.953,69.458
0.952,-0.141,0.116,3.662,-1.282,61.890
0.949,-0.161,0.107,1.221,-0.244,57.861
0.955,-0.167,0.098,1.770,0.793,56.946
0.949,-0.144,0.092,2.563,0.488,57.739
0.957,-0.126,0.090,2.930,-0.854,58.167
0.955,-0.097,0.091,2.747,-2.258,58.350
0.963,-0.067,0.091,3.113,-4.150,56.458
0.966,-0.054,0.100,3.418,-6.592,52.917
0.972,-0.059,0.118,2.014,-8.911,48.889
0.972,-0.072,0.130,0.610,-9.766,45.410
0.977,-0.066,0.139,0.549,-8.667,43.762
0.979,-0.046,0.142,2.258,-6.409,43.030
0.976,-0.031,0.136,5.371,-4.944,41.382
0.977,-0.021,0.127,6.226,-4.089,38.940
0.982,-0.016,0.130,3.967,-4.517,36.316
0.980,-0.020,0.141,1.648,-6.226,33.142
0.985,-0.017,0.149,1.038,-6.958,30.823
0.987,-0.016,0.152,1.343,-7.019,29.541
0.990,-0.011,0.155,0.671,-6.042,28.076
0.991,-0.001,0.158,-0.793,-4.578,26.123
0.992,-0.001,0.158,-0.305,-3.723,23.560
0.992,0.000,0.161,0.244,-3.662,21.118
0.993,-0.002,0.170,0.366,-4.028,18.982
0.991,-0.010,0.178,1.038,-4.150,16.846
0.991,-0.020,0.182,1.648,-3.113,15.320
0.989,-0.009,0.180,2.014,-1.343,14.526
0.988,-0.002,0.167,4.395,0.122,13.794
0.986,-0.001,0.150,6.409,0.793,12.329
0.982,0.006,0.142,4.456,1.221,10.986
0.973,0.011,0.139,2.869,1.038,9.583
0.990,-0.007,0.126,2.319,0.671,7.812
0.978,-0.017,0.135,-1.282,0.061,7.629
0.981,-0.024,0.147,-3.540,-0.671,8.057
0.980,-0.026,0.152,-2.625,-0.427,8.789
0.983,-0.024,0.155,-2.747,0.671,9.399
0.987,-0.020,0.153,-3.357,1.160,9.705
0.986,-0.014,0.153,-3.296,1.282,9.644
0.990,-0.000,0.152,-3.296,1.282,9.277
0.989,0.010,0.154,-2.319,0.916,8.484
0.990,0.012,0.157,-1.648,0.305,6.592
0.990,0.003,0.164,-1.587,0.061,4.089
0.987,-0.014,0.167,-1.709,0.244,1.831
0.987,-0.026,0.168,-1.526,0.793,0.671
0.990,-0.035,0.162,-0.366,1.587,0.854
0.988,-0.034,0.156,0.793,2.258,1.343
0.988,-0.028,0.149,0.977,2.686,2.075
0.991,-0.023,0.145,0.916,2.502,2.258
0.990,-0.021,0.145,0.488,1.892,2.136
0.988,-0.025,0.148,0.122,1.282,1.709
0.988,-0.030,0.153,-0.427,0.793,1.465
0.988,-0.030,0.154,-0.549,0.793,1.892
0.986,-0.025,0.154,-0.610,1.282,3.052
0.986,-0.017,0.151,-0.244,1.648,3.418
0.987,-0.015,0.152,0.183,1.587,3.357

0.693,1.491,0.231,-15.015,-32.837,-137.512
0.497,1.659,0.306,-24.414,-30.701,-225.830
0.324,1.615,0.380,-46.082,-25.574,-325.256
0.163,1.257,0.388,-67.139,-14.893,-432.251
-0.031,0.654,0.292,-86.121,0.488,-520.508
-0.209,0.155,0.197,-81.604,11.536,-563.110
-0.326,-0.151,0.126,-55.664,9.094,-561.768
-0.329,-0.425,0.049,-35.767,2.625,-551.270
-0.330,-0.719,0.013,-32.288,-7.202,-553.955
-0.266,-1.168,-0.040,-21.973,-20.569,-572.876
-0.187,-1.854,-0.076,-26.306,-38.452,-571.655
-0.122,-2.312,0.022,-59.387,-61.096,-486.633
0.040,-2.504,0.141,-64.575,-83.679,-398.743
0.126,-2.737,0.256,-38.696,-95.764,-333.374
0.182,-2.861,0.385,-36.133,-93.689,-252.319
0.305,-2.795,0.500,-32.837,-83.984,-151.794
0.363,-2.444,0.596,-9.277,-71.960,-50.903
0.394,-2.052,0.636,13.977,-55.298,17.883
0.418,-1.772,0.657,30.151,-38.025,52.917
0.404,-1.591,0.655,38.696,-23.254,74.890
0.393,-1.427,0.631,39.185,-8.667,94.238
0.368,-1.275,0.595,38.574,2.563,109.131
0.374,-1.122,0.554,38.635,12.024,120.972
0.430,-1.012,0.516,37.842,17.578,130.737
0.473,-0.970,0.498,33.630,20.691,135.986
0.479,-0.981,0.485,31.189,25.085,136.230
0.486,-1.038,0.450,34.912,31.738,138.977
0.462,-1.061,0.396,37.231,39.429,148.987
0.427,-0.994,0.328,36.682,47.058,164.673
0.426,-0.878,0.256,38.574,52.490,179.138
0.463,-0.741,0.196,36.804,52.795,188.416
0.500,-0.624,0.154,30.762,48.462,190.491
0.543,-0.548,0.133,23.621,41.382,185.425
0.585,-0.514,0.137,17.212,32.898,176.086
0.617,-0.510,0.158,13.245,25.391,166.443
0.631,-0.520,0.182,13.123,20.752,157.898
0.640,-0.518,0.189,15.564,20.203,150.574
0.657,-0.508,0.172,19.409,22.156,144.714
0.671,-0.501,0.152,21.240,23.315,139.587
0.683,-0.490,0.135,19.958,22.705,134.644
0.706,-0.500,0.115,18.616,21.179,129.944
0.726,-0.510,0.107,15.869,18.921,126.587
0.734,-0.490,0.105,10.803,16.846,125.732
0.742,-0.440,0.095,8.118,15.137,126.526
0.766,-0.395,0.084,8.301,13.184,125.916
0.784,-0.353,0.085,6.348,9.155,123.108
0.806,-0.331,0.095,2.319,4.700,117.493
0.830,-0.330,0.110,0.183,1.343,110.535
0.835,-0.325,0.133,-0.854,-0.793,104.492
0.845,-0.304,0.148,-1.038,-1.526,99.609
0.854,-0.286,0.151,1.282,-0.610,94.727
0.867,-0.271,0.148,4.150,0.732,89.294
0.870,-0.262,0.146,5.554,1.953,83.374
0.819,-0.274,0.149,4.456,3.418,76.172
0.873,-0.253,0.140,4.395,5.737,68.481
0.907,-0.409,0.082,5.005,5.188,57.495
0.890,-0.315,0.144,-11.963,3.601,61.584
0.906,-0.315,0.131,4.517,6.042,57.861
0.895,-0.335,0.098,22.278,6.653,50.659
0.921,-0.323,0.085,17.334,5.920,45.044
0.918,-0.409,0.085,15.015,1.099,37.537
0.919,-0.434,0.115,7.629,-3.723,39.978
0.932,-0.390,0.138,4.639,-5.432,48.950
0.935,-0.351,0.137,14.099,-5.127,55.176
0.940,-0.296,0.140,15.625,-4.517,58.899
0.944,-0.260,0.146,11.719,-4.395,58.777
0.942,-0.243,0.150,10.254,-4.333,56.641
0.945,-0.237,0.151,9.460,-4.639,54.504
0.942,-0.220,0.149,8.240,-5.066,53.650
0.944,-0.192,0.149,8.362,-5.920,53.894
0.945,-0.167,0.146,9.338,-6.836,53.650
0.947,-0.153,0.143,9.705,-7.080,52.063
0.948,-0.135,0.138,9.155,-6.714,49.866
0.944,-0.122,0.136,9.399,-7.141,47.180
0.951,-0.124,0.134,9.277,-7.751,44.189
0.958,-0.134,0.141,7.019,-8.057,41.321
0.958,-0.156,0.150,5.066,-8.545,39.124
0.960,-0.164,0.159,3.906,-8.301,38.574
0.962,-0.150,0.164,3.723,-7.629,39.917
0.967,-0.133,0.161,5.798,-6.531,40.894
0.966,-0.108,0.161,5.432,-5.920,40.771
0.972,-0.092,0.155,3.418,-5.737,39.124
0.970,-0.080,0.152,1.892,-6.958,36.804
0.974,-0.074,0.152,0.671,-7.385,33.752
0.970,-0.061,0.158,-1.770,-7.812,30.579
0.971,-0.062,0.159,-1.709,-8.240,26.672
0.968,-0.072,0.161,-1.404,-8.545,22.461
0.968,-0.078,0.167,-1.343,-8.972,19.348
0.969,-0.086,0.179,-0.610,-9.827,17.212
0.972,-0.104,0.195,-0.793,-10.559,15.137
0.976,-0.125,0.211,-0.793,-10.681,13.367
0.980,-0.160,0.217,-0.122,-9.460,12.939
0.977,-0.172,0.224,-0.549,-6.897,14.404
0.980,-0.163,0.221,0.244,-4.639,17.944
0.982,-0.136,0.213,3.235,-2.808,20.996
0.983,-0.108,0.205,5.005,-2.319,23.132
0.983,-0.082,0.203,4.944,-2.563,23.315
0.982,-0.064,0.204,3.601,-3.052,22.156
0.980,-0.053,0.205,1.831,-2.869,20.142
0.976,-0.048,0.207,0.488,-2.502,17.822
0.978,-0.052,0.207,-0.732,-1.831,15.564
0.974,-0.060,0.208,-1.770,-1.160,13.245
0.972,-0.061,0.208,-1.770,-0.305,11.841
0.972,-0.060,0.200,0.366,0.427,10.803
0.972,-0.059,0.188,1.343,1.160,9.766
0.974,-0.058,0.179,1.099,2.014,8.789
0.974,-0.059,0.175,0.671,1.465,7.629
0.978,-0.064,0.179,0.061,0.061,6.470
0.978,-0.073,0.185,-1.160,-0.732,5.554
0.976,-0.078,0.191,-2.014,-1.038,5.188
0.977,-0.087,0.196,-1.526,-0.977,4.883
0.977,-0.099,0.203,-0.549,-0.916,4.272
0.977,-0.099,0.206,-0.183,-0.671,4.578
0.977,-0.086,0.204,0.427,0.061,5.432
0.976,-0.079,0.198,1.953,0.854,5.615
0.976,-0.076,0.190,2.258,1.404,4.883
0.974,-0.070,0.184,1.892,1.221,4.639
0.974,-0.062,0.181,1.892,0.916,4.211
0.974,-0.064,0.179,2.991,0.183,3.479

0.797,1.780,0.648,-24.658,3.845,2.869
0.768,2.208,0.676,26.550,9.644,-84.106
0.615,2.369,0.632,16.418,37.659,-210.022
0.208,2.002,0.573,-56.702,70.618,-365.234
-0.139,1.002,0.377,-88.989,92.346,-503.723
-0.247,0.334,0.201,-86.609,93.018,-553.589
-0.298,-0.041,0.106,-68.542,78.674,-551.392
-0.263,-0.336,0.080,-50.049,61.707,-535.767
-0.256,-0.586,0.087,-47.119,48.157,-531.494
-0.190,-0.917,0.072,-46.082,39.734,-552.856
-0.114,-1.367,0.063,-56.091,35.645,-569.763
-0.094,-2.032,0.058,-80.383,33.691,-525.818
-0.039,-2.327,0.036,-93.994,29.907,-430.420
0.131,-2.511,-0.009,-74.768,21.545,-352.783
0.197,-2.594,0.053,-75.378,8.179,-280.518
0.221,-2.639,0.148,-70.313,-1.831,-207.336
0.239,-2.578,0.242,-54.321,-6.042,-130.920
0.263,-2.368,0.303,-34.180,-3.235,-59.387
0.250,-2.130,0.324,-16.846,6.409,-7.141
0.232,-1.953,0.301,-0.366,18.372,25.757
0.212,-1.823,0.264,15.137,25.635,51.514
0.194,-1.697,0.230,26.245,27.466,74.829
0.194,-1.563,0.198,32.532,27.527,95.215
0.244,-1.424,0.179,35.767,25.391,112.427
0.302,-1.302,0.173,38.452,19.043,125.854
0.338,-1.221,0.183,42.603,9.888,133.850
0.350,-1.153,0.198,47.119,3.174,140.076
0.393,-1.096,0.202,50.415,-0.610,146.790
0.429,-1.013,0.210,48.279,-1.282,154.907
0.458,-0.947,0.211,47.668,-1.282,163.147
0.495,-0.887,0.201,50.049,-1.221,169.495
0.509,-0.810,0.201,49.011,-1.282,175.049
0.541,-0.746,0.195,51.392,-1.770,177.856
0.560,-0.678,0.187,52.490,-2.869,178.101
0.584,-0.594,0.180,47.974,-4.578,178.040
0.633,-0.522,0.187,39.917,-6.470,174.805
0.673,-0.498,0.207,32.288,-10.315,168.396
0.702,-0.502,0.240,24.231,-13.000,160.828
0.714,-0.506,0.265,18.921,-11.292,155.090
0.719,-0.498,0.267,17.700,-6.226,152.527
0.729,-0.464,0.239,16.357,1.038,152.039
0.739,-0.414,0.204,13.611,9.033,151.672
0.747,-0.370,0.159,13.000,15.015,149.841
0.760,-0.328,0.117,13.550,18.921,146.545
0.781,-0.312,0.077,13.672,19.653,141.296
0.799,-0.300,0.054,12.268,18.372,133.789
0.805,-0.285,0.041,11.841,15.259,126.953
0.815,-0.266,0.034,12.573,11.597,121.704
0.828,-0.245,0.031,12.085,8.057,116.089
0.776,-0.225,0.042,10.193,5.005,109.314
0.865,-0.199,0.041,9.338,3.296,103.027
0.866,-0.269,-0.001,10.681,0.732,92.041
0.887,-0.214,0.060,-0.427,-2.136,90.576
0.883,-0.183,0.076,9.827,-2.808,88.928
0.893,-0.176,0.068,18.982,-1.831,82.031
0.899,-0.159,0.059,13.428,0.244,73.059
0.904,-0.203,0.048,8.911,0.671,61.890
0.911,-0.233,0.050,5.066,-1.221,56.213
0.925,-0.240,0.051,3.235,-2.808,54.565
0.930,-0.242,0.051,3.174,-3.174,52.429
0.935,-0.227,0.053,2.930,-3.174,50.781
0.940,-0.219,0.053,4.456,-3.540,48.523
0.946,-0.217,0.056,4.272,-3.601,45.166
0.953,-0.237,0.059,2.869,-4.456,41.748
0.957,-0.262,0.070,1.953,-7.080,39.368
0.961,-0.281,0.089,1.282,-10.437,38.696
0.962,-0.278,0.112,0.671,-12.634,40.344
0.965,-0.260,0.124,1.526,-13.306,43.152
0.968,-0.232,0.130,1.770,-11.780,45.532
0.964,-0.199,0.129,1.404,-9.399,46.509
0.965,-0.181,0.119,2.441,-6.836,44.922
0.961,-0.171,0.107,3.113,-5.249,42.480
0.968,-0.174,0.100,3.174,-5.188,40.344
0.962,-0.171,0.106,2.014,-5.981,38.696
0.962,-0.165,0.115,2.014,-7.141,38.147
0.964,-0.152,0.119,3.601,-7.690,37.476
0.965,-0.137,0.121,4.089,-7.385,36.316
0.970,-0.126,0.121,3.601,-5.676,34.241
0.972,-0.124,0.119,3.662,-4.272,31.372
0.977,-0.123,0.114,3.601,-3.418,28.442
0.977,-0.124,0.113,3.479,-3.235,25.879
0.979,-0.127,0.113,3.662,-3.479,23.437
0.979,-0.128,0.114,3.235,-3.906,21.057
0.983,-0.124,0.113,2.991,-4.028,19.165
0.982,-0.125,0.110,3.784,-4.333,17.090
0.984,-0.129,0.109,3.845,-4.883,15.259
0.982,-0.145,0.120,2.625,-5.554,13.123
0.986,-0.177,0.132,1.038,-6.226,11.230
0.986,-0.190,0.151,-0.549,-5.737,11.047
0.987,-0.182,0.160,0.488,-4.822,12.817
0.990,-0.162,0.166,3.235,-3.601,14.404
0.993,-0.148,0.162,5.188,-1.709,14.587
0.994,-0.154,0.155,7.324,-0.305,13.184
0.993,-0.152,0.148,6.775,0.854,12.695
0.994,-0.144,0.142,6.775,1.709,13.245
0.989,-0.127,0.134,7.935,2.258,13.794
0.984,-0.106,0.127,8.423,2.502,14.160
0.980,-0.096,0.117,7.996,2.563,13.123
0.977,-0.091,0.111,6.409,2.197,11.597
0.974,-0.086,0.111,4.883,1.465,10.315
0.974,-0.092,0.115,4.456,0.244,9.033
0.975,-0.100,0.122,3.174,-0.732,7.935
0.980,-0.102,0.129,1.343,-0.916,7.507
0.982,-0.097,0.132,0.732,-0.549,7.507
0.986,-0.091,0.130,1.099,0.061,7.141
0.988,-0.088,0.124,0.854,0.671,6.165
0.990,-0.094,0.122,0.732,0.549,5.005
0.988,-0.098,0.124,0.732,-0.122,4.089
0.989,-0.096,0.131,1.038,-0.854,3.662
0.987,-0.097,0.138,1.648,-1.404,2.930
0.989,-0.111,0.146,0.793,-1.404,2.014
0.988,-0.123,0.154,-1.282,-0.916,1.343
0.986,-0.126,0.156,-1.526,0.000,1.892
0.986,-0.124,0.149,-0.122,0.854,2.563
0.987,-0.125,0.141,0.000,2.075,3.052
0.986,-0.126,0.133,-0.427,2.563,2.625
0.984,-0.122,0.129,-0.183,2.380,2.930
0.984,-0.115,0.126,0.366,1.831,3.235
0.985,-0.118,0.125,0.122,1.038,2.808

0.688,1.023,0.341,15.076,-13.794,-168.579
0.519,1.056,0.364,2.930,-4.822,-243.286
0.342,1.026,0.354,-31.128,4.822,-313.171
0.228,0.832,0.290,-59.326,11.841,-376.038
0.096,0.540,0.260,-78.979,11.719,-424.561
-0.011,0.239,0.307,-93.689,4.578,-457.336
-0.080,-0.023,0.428,-91.980,-3.052,-474.548
-0.088,-0.263,0.515,-77.820,-2.808,-477.417
-0.113,-0.520,0.509,-63.721,11.902,-475.952
-0.145,-0.805,0.401,-50.232,35.278,-486.511
-0.067,-1.210,0.231,-41.016,53.284,-511.414
-0.066,-1.852,0.150,-53.284,52.002,-515.015
-0.046,-2.329,0.150,-84.290,38.513,-462.158
0.031,-2.686,0.190,-111.572,24.902,-417.908
-0.011,-3.069,0.265,-130.798,12.573,-375.427
-0.025,-3.326,0.356,-140.686,7.385,-306.213
-0.025,-3.443,0.442,-117.981,7.324,-199.280
0.032,-3.191,0.496,-58.716,7.812,-51.758
0.043,-2.448,0.527,6.287,10.315,86.365
0.058,-1.877,0.489,50.964,18.982,152.954
0.078,-1.547,0.439,56.274,30.640,169.067
0.108,-1.370,0.385,47.485,35.767,172.180
0.137,-1.275,0.345,45.959,34.546,174.255
0.150,-1.200,0.333,48.218,30.823,178.833
0.177,-1.134,0.318,51.392,27.527,184.875
0.203,-1.052,0.297,52.734,27.039,191.223
0.239,-0.965,0.262,53.650,28.015,198.242
0.271,-0.870,0.231,53.589,28.748,204.834
0.308,-0.751,0.190,52.002,28.137,209.229
0.353,-0.629,0.148,51.880,26.306,210.693
0.413,-0.526,0.113,51.208,21.729,208.496
0.479,-0.448,0.100,47.363,14.099,201.721
0.540,-0.403,0.113,41.931,4.578,191.040
0.598,-0.387,0.154,34.485,-3.540,178.711
0.647,-0.395,0.196,29.907,-8.179,165.833
0.685,-0.415,0.225,28.198,-7.874,154.419
0.707,-0.445,0.232,27.222,-4.272,145.020
0.726,-0.469,0.225,25.085,-0.427,137.878
0.737,-0.488,0.208,22.766,3.418,133.301
0.746,-0.489,0.192,20.691,6.592,131.165
0.754,-0.470,0.182,19.226,7.812,130.066
0.762,-0.447,0.172,19.348,7.996,129.150
0.776,-0.423,0.159,17.273,9.338,127.808
0.784,-0.393,0.143,12.024,11.536,125.549
0.798,-0.364,0.121,9.888,13.062,122.925
0.809,-0.336,0.099,10.193,13.306,119.751
0.819,-0.304,0.085,9.949,11.780,116.272
0.849,-0.289,0.084,8.850,9.033,112.183
0.812,-0.271,0.098,10.010,6.042,106.201
0.870,-0.361,0.088,2.869,3.967,98.450
0.854,-0.280,0.137,-9.644,2.075,102.234
0.872,-0.252,0.118,8.179,4.517,97.656
0.885,-0.266,0.095,20.569,8.301,87.158
0.895,-0.300,0.072,14.404,11.292,78.979
0.892,-0.328,0.061,2.625,11.353,74.768
0.893,-0.323,0.063,0.000,8.240,76.233
0.899,-0.293,0.063,5.188,5.249,78.308
0.905,-0.253,0.057,7.629,3.601,77.637
0.908,-0.229,0.052,5.737,2.380,74.463
0.920,-0.227,0.053,2.991,0.671,69.641
0.923,-0.229,0.057,0.671,-1.221,65.796
0.926,-0.228,0.069,-0.854,-3.296,63.843
0.929,-0.231,0.080,-1.587,-5.737,62.866
0.931,-0.229,0.093,-3.357,-7.141,62.317
0.934,-0.220,0.103,-4.883,-8.179,62.622
0.944,-0.171,0.110,-3.418,-9.460,64.270
0.958,-0.124,0.114,0.488,-10.803,63.904
0.976,-0.111,0.122,3.967,-11.658,59.692
0.980,-0.125,0.143,2.197,-11.841,52.856
0.977,-0.159,0.163,-2.197,-10.620,45.898
0.977,-0.198,0.172,-5.249,-7.263,40.588
0.974,-0.209,0.166,-5.188,-3.235,38.269
0.974,-0.212,0.142,-0.427,-0.427,38.086
0.971,-0.195,0.120,3.418,0.977,38.635
0.967,-0.184,0.102,5.615,0.488,38.391
0.965,-0.182,0.094,7.080,-0.610,37.415
0.962,-0.183,0.093,6.836,-2.197,37.109
0.963,-0.160,0.098,5.371,-4.089,37.720
0.967,-0.135,0.103,6.775,-5.798,38.208
0.971,-0.126,0.108,9.155,-7.690,37.659
0.977,-0.115,0.123,7.507,-9.521,36.011
0.980,-0.091,0.138,3.967,-10.071,34.546
0.981,-0.082,0.150,4.089,-10.193,32.654
1.000,-0.077,0.156,4.272,-9.521,29.968
0.993,-0.082,0.165,2.930,-8.423,26.978
0.994,-0.074,0.173,0.061,-7.080,24.536
0.990,-0.070,0.179,0.854,-5.981,22.644
0.995,-0.078,0.179,4.395,-4.028,19.836
0.987,-0.078,0.177,5.371,-2.502,17.578
0.990,-0.086,0.167,5.859,-1.404,15.564
0.986,-0.088,0.165,5.371,-1.038,14.038
0.984,-0.089,0.164,5.615,-0.854,13.428
0.985,-0.094,0.159,5.981,-0.549,13.245
0.981,-0.093,0.154,5.005,-0.122,13.672
0.979,-0.090,0.146,2.563,0.366,14.038
0.977,-0.079,0.139,1.160,1.343,14.282
0.978,-0.063,0.133,1.648,1.282,14.465
0.978,-0.051,0.130,3.052,0.244,14.038
0.980,-0.040,0.136,2.625,-0.916,12.878
0.982,-0.037,0.143,1.587,-1.465,10.986
0.982,-0.039,0.148,1.465,-1.831,9.033
0.982,-0.056,0.155,1.465,-1.831,7.141
0.987,-0.067,0.164,0.671,-1.526,5.615
0.988,-0.068,0.170,1.038,-1.465,5.249
0.991,-0.064,0.171,0.854,-1.221,5.493
0.990,-0.075,0.172,0.366,-0.671,4.578
0.991,-0.091,0.174,-0.183,-0.122,3.357
0.990,-0.104,0.175,-0.488,0.183,3.418
0.990,-0.103,0.177,-0.916,0.610,4.395
0.990,-0.105,0.173,-0.732,0.977,5.310
0.989,-0.096,0.173,-0.916,1.770,6.287
0.986,-0.080,0.170,-0.305,2.136,7.080
0.986,-0.063,0.164,1.221,2.625,7.202
0.985,-0.059,0.156,1.526,2.686,6.104
0.983,-0.065,0.152,0.793,2.502,4.272
0.983,-0.068,0.150,0.305,2.136,3.113
0.985,-0.083,0.146,0.122,1.831,2.686
0.983,-0.088,0.147,-0.488,1.953,2.869
0.982,-0.085,0.150,-0.671,1.892,3.601

0.810,0.928,0.168,-65.796,-38.391,-100.830
0.763,0.973,0.195,-81.909,-41.077,-139.954
0.629,1.007,0.209,-103.394,-42.969,-204.590
0.516,0.943,0.187,-122.375,-42.358,-270.386
0.378,0.805,0.189,-139.160,-43.457,-326.172
0.287,0.462,0.247,-130.432,-53.467,-376.587
0.241,0.095,0.363,-109.375,-68.604,-405.212
0.180,-0.183,0.504,-84.595,-75.195,-412.109
0.201,-0.393,0.554,-54.138,-65.125,-411.499
0.223,-0.612,0.540,-27.710,-46.509,-420.654
0.259,-0.967,0.507,-8.484,-31.494,-440.125
0.247,-1.425,0.454,0.000,-22.339,-449.890
0.285,-2.037,0.420,-9.094,-16.235,-394.043
0.358,-2.293,0.406,-13.428,-15.381,-302.734
0.437,-2.412,0.392,-2.808,-12.024,-225.159
0.463,-2.397,0.410,-5.554,-6.958,-150.940
0.484,-2.276,0.449,-9.888,-2.380,-81.604
0.517,-2.039,0.497,-2.197,1.587,-18.860
0.510,-1.758,0.543,10.803,7.629,30.945
0.500,-1.519,0.545,21.545,18.127,65.125
0.466,-1.317,0.498,27.161,32.104,85.632
0.447,-1.165,0.406,32.776,44.861,96.924
0.466,-1.067,0.306,41.321,51.819,101.501
0.478,-1.003,0.238,48.279,50.720,104.431
0.500,-0.970,0.210,52.124,43.884,107.666
0.515,-0.942,0.214,53.345,34.973,112.061
0.537,-0.924,0.224,54.626,27.344,117.004
0.558,-0.885,0.228,52.856,22.827,123.230
0.577,-0.846,0.222,51.147,20.203,129.822
0.603,-0.802,0.212,47.180,18.372,136.230
0.618,-0.722,0.210,42.114,16.052,142.883
0.638,-0.630,0.214,42.480,12.390,147.217
0.688,-0.537,0.217,43.823,7.874,147.766
0.720,-0.456,0.233,41.260,3.418,144.897
0.748,-0.413,0.249,38.513,0.000,138.184
0.777,-0.411,0.265,35.889,-1.343,129.211
0.790,-0.440,0.278,32.593,-0.916,121.704
0.807,-0.484,0.278,30.823,1.709,116.943
0.801,-0.505,0.266,30.762,6.470,116.821
0.793,-0.486,0.243,30.823,11.902,119.873
0.802,-0.434,0.211,30.212,15.747,123.291
0.794,-0.375,0.178,30.457,16.724,125.671
0.807,-0.323,0.146,29.419,15.442,125.549
0.826,-0.295,0.126,25.757,13.184,121.887
0.829,-0.271,0.121,21.179,10.010,116.394
0.845,-0.247,0.114,18.982,7.080,111.328
0.863,-0.213,0.113,17.822,4.578,107.422
0.848,-0.186,0.121,17.090,2.319,102.600
0.861,-0.175,0.123,18.616,1.038,95.703
0.921,-0.274,0.114,13.306,-0.305,86.914
0.884,-0.221,0.180,1.038,-1.465,89.905
0.911,-0.199,0.165,16.174,1.038,86.731
0.906,-0.188,0.153,24.231,4.150,77.026
0.930,-0.212,0.134,18.982,6.653,67.993
0.924,-0.266,0.120,16.296,6.897,61.890
0.923,-0.261,0.122,12.756,4.578,63.354
0.935,-0.224,0.120,14.648,2.258,67.261
0.941,-0.187,0.120,17.761,0.549,67.932
0.943,-0.166,0.130,16.663,-0.854,65.247
0.945,-0.163,0.142,13.916,-1.953,60.669
0.951,-0.168,0.151,10.742,-2.136,56.580
0.950,-0.154,0.154,8.667,-1.526,54.016
0.952,-0.142,0.146,10.620,-1.160,51.819
0.961,-0.139,0.141,10.986,-1.282,49.438
0.960,-0.148,0.148,9.155,-2.441,46.631
0.967,-0.167,0.157,8.179,-3.906,44.617
0.965,-0.169,0.167,7.751,-4.333,44.189
0.967,-0.151,0.164,7.751,-2.625,44.922
0.970,-0.127,0.151,9.521,-0.549,45.776
0.969,-0.102,0.138,9.155,0.916,45.715
0.974,-0.097,0.133,6.653,1.282,43.884
0.969,-0.106,0.136,5.615,0.000,41.138
0.968,-0.101,0.141,5.859,-1.648,39.856
0.969,-0.090,0.148,6.348,-2.747,40.466
0.969,-0.072,0.155,7.080,-3.662,40.649
0.973,-0.049,0.160,7.507,-3.906,39.673
0.979,-0.039,0.160,7.507,-3.357,37.231
0.977,-0.031,0.162,5.981,-2.441,34.546
0.978,-0.041,0.159,5.737,-2.014,31.250
0.978,-0.055,0.155,4.944,-1.709,28.259
0.981,-0.061,0.154,4.150,-1.831,26.123
0.980,-0.063,0.158,5.188,-2.563,25.024
0.987,-0.069,0.164,6.226,-3.235,24.597
0.990,-0.067,0.175,5.066,-3.418,23.926
0.991,-0.061,0.180,4.639,-2.991,23.376
0.991,-0.058,0.175,5.615,-1.709,23.132
0.989,-0.044,0.169,5.005,-0.488,22.522
0.989,-0.040,0.163,4.456,0.305,21.545
0.988,-0.037,0.162,4.272,-0.305,20.142
0.985,-0.033,0.163,3.723,-0.854,19.165
0.983,-0.031,0.160,3.662,-0.732,18.005
0.980,-0.020,0.155,3.967,0.122,17.029
0.974,-0.017,0.147,4.761,0.366,16.235
0.979,-0.018,0.142,4.089,0.122,15.198
0.980,-0.016,0.139,3.174,-0.366,13.855
0.971,-0.001,0.141,2.380,-1.038,13.611
0.974,0.015,0.145,2.930,-1.709,13.367
0.977,0.011,0.150,4.150,-2.136,11.597
0.976,0.005,0.159,1.831,-3.052,9.460
0.983,-0.001,0.171,-1.099,-3.540,7.690
0.983,-0.001,0.178,-1.587,-3.906,6.775
0.991,-0.007,0.181,-0.427,-3.235,6.042
0.992,-0.000,0.192,-1.404,-2.136,5.493
0.994,-0.010,0.199,-1.953,-1.587,4.028
0.991,-0.034,0.203,-1.953,-0.916,1.953
0.988,-0.060,0.198,-1.648,0.366,0.977
0.986,-0.068,0.190,-1.160,1.648,1.953
0.984,-0.056,0.180,0.427,2.563,4.089
0.988,-0.039,0.167,2.380,2.258,5.676
0.988,-0.021,0.164,2.075,2.075,5.737
0.984,-0.011,0.164,0.977,1.709,5.066
0.988,-0.019,0.164,0.732,1.160,3.540
0.985,-0.027,0.165,-0.671,0.854,2.258
0.983,-0.032,0.166,-0.916,0.732,1.587
0.981,-0.035,0.165,0.305,0.732,1.770
0.984,-0.045,0.167,0.854,0.732,1.709
0.982,-0.058,0.171,0.305,0.671,1.587
0.983,-0.058,0.173,-0.305,0.977,2.197
0.983,-0.047,0.170,1.343,1.099,3.601

0.879,1.106,0.233,-27.100,-5.066,-47.791
0.777,1.219,0.210,-28.564,-5.249,-105.225
0.634,1.253,0.183,-29.297,-5.432,-167.603
0.526,1.325,0.181,-35.034,-8.118,-232.544
0.457,1.142,0.119,-48.218,-9.766,-312.195
0.267,0.774,0.102,-84.778,-15.320,-383.240
0.151,0.388,0.109,-101.685,-28.992,-423.767
0.052,0.168,0.177,-92.102,-43.640,-433.716
0.025,0.046,0.240,-74.951,-49.133,-430.298
-0.058,-0.074,0.272,-61.523,-44.678,-429.016
-0.059,-0.297,0.312,-50.110,-39.673,-433.167
-0.044,-0.599,0.409,-35.950,-41.321,-445.801
0.015,-0.935,0.500,-14.526,-40.588,-474.792
0.049,-1.427,0.493,3.052,-30.640,-510.376
0.091,-2.313,0.435,-14.221,-12.817,-477.966
0.119,-2.655,0.380,-54.688,1.038,-386.658
0.188,-2.878,0.316,-50.293,6.042,-313.660
0.232,-3.011,0.329,-48.584,5.798,-236.389
0.242,-2.965,0.417,-41.565,-1.465,-136.963
0.302,-2.562,0.517,-16.541,-7.874,-27.893
0.340,-2.059,0.594,8.911,-4.700,52.551
0.301,-1.744,0.593,26.672,9.033,88.501
0.263,-1.551,0.527,37.842,26.611,101.440
0.272,-1.410,0.435,45.654,37.964,110.657
0.283,-1.280,0.364,51.086,39.978,120.361
0.305,-1.174,0.321,55.420,36.072,127.991
0.339,-1.106,0.307,54.993,30.029,133.545
0.361,-1.049,0.312,48.279,25.024,138.306
0.392,-1.004,0.303,39.368,22.888,143.494
0.419,-0.954,0.282,31.677,23.499,149.780
0.448,-0.896,0.253,25.696,23.987,157.776
0.476,-0.807,0.221,21.667,24.109,166.565
0.521,-0.709,0.192,22.156,22.522,173.279
0.561,-0.616,0.184,23.804,18.127,176.270
0.602,-0.541,0.196,26.672,11.719,174.500
0.638,-0.488,0.216,30.701,5.676,169.189
0.673,-0.447,0.237,32.776,1.526,162.048
0.708,-0.438,0.249,31.738,-0.671,153.809
0.730,-0.465,0.262,28.809,-1.465,144.897
0.738,-0.497,0.281,26.123,-0.732,138.489
0.755,-0.511,0.288,24.170,1.648,136.230
0.750,-0.503,0.275,23.682,6.470,136.658
0.752,-0.467,0.254,22.217,12.512,138.489
0.755,-0.428,0.220,21.179,17.334,139.954
0.763,-0.379,0.184,20.325,20.081,140.137
0.777,-0.327,0.152,17.883,20.630,139.282
0.755,-0.285,0.132,14.832,19.714,136.414
0.806,-0.246,0.113,14.648,18.066,131.653
0.844,-0.271,0.069,17.029,15.381,124.268
0.812,-0.204,0.122,8.362,9.766,122.803
0.845,-0.160,0.122,19.470,6.592,118.835
0.871,-0.161,0.120,30.884,4.761,106.506
0.881,-0.174,0.132,24.841,3.540,94.055
0.891,-0.228,0.130,15.747,4.150,83.862
0.894,-0.248,0.138,8.484,4.578,80.139
0.901,-0.237,0.136,9.155,4.211,80.261
0.910,-0.211,0.130,12.390,4.150,79.407
0.913,-0.187,0.127,11.963,3.967,76.660
0.927,-0.193,0.135,10.986,2.197,71.960
0.930,-0.203,0.152,7.935,-0.305,67.688
0.933,-0.210,0.164,5.920,-1.343,64.697
0.938,-0.210,0.168,6.409,-0.854,62.866
0.942,-0.193,0.160,6.470,0.854,61.890
0.950,-0.170,0.141,7.690,2.380,60.730
0.950,-0.139,0.124,8.972,2.686,59.448
0.955,-0.117,0.119,8.362,0.916,57.312
0.958,-0.112,0.132,6.042,-1.831,53.284
0.960,-0.112,0.150,3.967,-4.517,48.584
0.960,-0.117,0.162,4.211,-5.371,44.678
0.964,-0.139,0.169,4.822,-4.761,41.565
0.962,-0.156,0.172,4.395,-3.601,39.307
0.965,-0.157,0.170,4.639,-1.953,39.001
0.965,-0.145,0.162,6.104,-0.549,40.100
0.967,-0.125,0.154,6.775,0.549,41.199
0.969,-0.116,0.144,7.812,0.732,40.894
0.966,-0.105,0.143,7.263,0.244,39.795
0.969,-0.090,0.145,6.897,-0.732,38.696
0.972,-0.072,0.146,6.287,-1.404,37.598
0.975,-0.046,0.146,5.676,-1.404,36.377
0.974,-0.030,0.143,7.019,-1.282,34.119
0.976,-0.037,0.140,7.751,-1.465,30.701
0.971,-0.049,0.145,5.188,-2.197,27.222
0.973,-0.057,0.154,3.784,-3.235,24.536
0.977,-0.062,0.161,4.456,-3.784,23.071
0.978,-0.061,0.166,4.517,-3.662,21.973
0.985,-0.060,0.165,4.211,-3.479,20.691
0.990,-0.059,0.168,4.089,-2.563,19.592
0.987,-0.065,0.172,3.784,-2.502,18.494
0.988,-0.077,0.176,2.686,-2.258,17.273
0.987,-0.088,0.181,1.343,-1.892,16.724
0.988,-0.081,0.186,1.038,-1.404,17.395
0.986,-0.063,0.185,1.831,-1.099,18.372
0.989,-0.049,0.180,2.747,-0.122,18.188
0.984,-0.038,0.175,3.235,0.793,17.151
0.982,-0.022,0.166,2.930,1.648,15.808
0.978,-0.019,0.155,3.296,2.014,13.794
0.975,-0.017,0.146,3.906,1.587,11.475
0.974,-0.010,0.140,4.272,1.160,9.644
0.974,-0.002,0.136,4.456,0.244,8.057
0.975,-0.015,0.138,4.517,-0.916,5.737
0.974,-0.034,0.150,2.197,-2.075,3.662
0.974,-0.048,0.165,-0.427,-2.747,2.686
0.979,-0.066,0.178,-0.610,-3.479,2.502
0.982,-0.075,0.192,-1.343,-3.540,3.174
0.986,-0.088,0.203,-1.892,-2.991,3.845
0.989,-0.091,0.209,-1.709,-1.709,4.700
0.992,-0.084,0.206,-0.305,-0.366,6.104
0.995,-0.071,0.197,1.648,0.977,7.141
0.993,-0.055,0.191,2.197,1.648,7.385
0.997,-0.049,0.186,1.892,1.709,6.592
0.993,-0.058,0.183,0.793,1.648,5.005
0.987,-0.057,0.184,-0.854,2.258,4.089
0.984,-0.065,0.177,0.183,2.563,3.845
0.983,-0.073,0.171,0.916,2.686,3.296
0.979,-0.070,0.167,0.732,3.113,3.601
0.979,-0.069,0.163,1.953,2.747,4.272
0.979,-0.065,0.164,2.014,2.014,4.333
0.980,-0.058,0.164,1.160,1.709,4.456
0.982,-0.060,0.164,1.404,1.160,4.395

0.556,1.277,0.200,-42.542,-18.433,-203.796
0.347,1.312,0.174,-55.664,-19.958,-284.668
0.156,1.113,0.142,-92.712,-23.254,-367.676
-0.067,0.727,0.170,-112.854,-36.194,-435.120
-0.172,0.389,0.273,-108.337,-54.504,-474.976
-0.249,0.100,0.440,-96.985,-68.848,-491.028
-0.233,-0.307,0.573,-77.271,-68.481,-504.089
-0.162,-0.743,0.670,-52.490,-57.861,-529.541
-0.061,-1.256,0.644,-25.452,-37.781,-580.811
-0.035,-2.383,0.468,-36.072,-10.132,-584.229
-0.010,-2.779,0.419,-111.572,6.897,-478.821
0.144,-3.177,0.378,-113.403,1.892,-401.978
0.161,-3.474,0.457,-89.844,-12.024,-309.937
0.236,-3.358,0.646,-86.121,-23.682,-171.753
0.317,-2.727,0.804,-42.542,-25.269,-22.461
0.394,-2.013,0.823,2.869,-8.057,73.364
0.381,-1.603,0.746,16.541,18.982,107.239
0.331,-1.400,0.633,19.287,41.016,112.915
0.343,-1.297,0.507,34.546,51.392,116.760
0.347,-1.174,0.442,47.363,51.697,126.465
0.346,-1.073,0.403,56.824,49.377,135.742
0.351,-1.009,0.366,64.331,48.096,140.869
0.366,-0.979,0.331,66.589,47.302,144.775
0.379,-0.957,0.295,67.322,46.326,150.330
0.373,-0.893,0.255,68.665,45.593,159.363
0.393,-0.785,0.209,72.021,43.457,169.739
0.445,-0.636,0.179,70.679,38.025,178.223
0.506,-0.512,0.165,63.232,29.114,179.687
0.559,-0.437,0.169,54.993,19.287,172.119
0.603,-0.399,0.185,48.828,10.376,159.363
0.652,-0.400,0.209,47.668,2.869,145.935
0.698,-0.415,0.247,45.959,-2.197,135.071
0.728,-0.442,0.288,41.016,-4.517,126.953
0.757,-0.491,0.314,39.490,-3.845,119.690
0.764,-0.530,0.325,40.527,-0.732,115.417
0.770,-0.545,0.324,39.429,3.357,115.112
0.773,-0.533,0.309,37.292,7.874,117.004
0.774,-0.507,0.284,36.926,12.573,119.019
0.774,-0.488,0.254,37.781,16.174,119.995
0.781,-0.453,0.227,36.072,18.433,120.728
0.793,-0.426,0.199,35.156,19.287,120.422
0.795,-0.390,0.175,34.790,19.897,119.873
0.804,-0.349,0.152,32.654,19.104,118.958
0.822,-0.322,0.141,29.480,17.273,115.967
0.830,-0.306,0.142,25.696,14.038,111.206
0.835,-0.295,0.140,22.888,11.108,105.652
0.911,-0.272,0.124,22.156,10.559,100.342
0.845,-0.296,0.103,25.574,9.888,94.849
0.853,-0.303,0.120,17.273,7.019,92.041
0.880,-0.248,0.141,14.709,4.456,93.628
0.896,-0.254,0.139,28.564,4.089,86.792
0.889,-0.270,0.152,27.954,4.761,78.613
0.906,-0.314,0.143,20.386,7.202,72.632
0.896,-0.337,0.129,17.334,8.362,71.960
0.906,-0.324,0.117,19.104,7.996,75.378
0.909,-0.288,0.111,23.926,6.531,78.552
0.917,-0.241,0.108,25.024,4.639,79.651
0.927,-0.206,0.110,23.743,2.197,77.820
0.937,-0.196,0.121,21.240,0.610,73.425
0.937,-0.193,0.129,19.470,-0.366,68.542
0.943,-0.193,0.127,18.433,-0.549,64.880
0.942,-0.185,0.125,17.944,-0.610,62.683
0.946,-0.175,0.120,17.151,-0.793,61.340
0.950,-0.166,0.121,16.724,-1.282,59.631
0.953,-0.151,0.122,15.808,-1.892,58.044
0.956,-0.137,0.124,15.381,-2.991,56.274
0.960,-0.131,0.123,14.404,-3.235,53.955
0.963,-0.137,0.127,14.587,-3.296,51.636
0.965,-0.141,0.131,15.259,-3.845,49.988
0.968,-0.124,0.137,16.357,-4.089,49.805
0.970,-0.107,0.140,17.639,-4.211,50.110
0.970,-0.081,0.144,18.188,-3.967,49.133
0.973,-0.063,0.140,17.517,-3.540,47.485
0.973,-0.042,0.139,16.357,-3.784,44.922
0.975,-0.037,0.137,15.503,-4.272,41.809
0.975,-0.042,0.143,14.099,-4.822,37.903
0.976,-0.052,0.153,11.780,-5.249,34.180
0.977,-0.064,0.162,10.620,-5.127,31.311
0.983,-0.080,0.163,11.292,-4.211,29.175
0.985,-0.075,0.164,11.475,-3.174,28.076
0.989,-0.067,0.156,12.390,-2.075,27.588
0.990,-0.053,0.149,13.000,-1.587,26.855
0.992,-0.038,0.146,12.817,-1.953,25.452
0.991,-0.031,0.146,11.963,-2.808,23.926
0.992,-0.032,0.153,10.254,-3.540,21.667
0.992,-0.030,0.166,7.141,-3.662,19.470
0.990,-0.027,0.172,5.493,-2.991,17.395
0.990,-0.033,0.168,6.104,-1.892,15.503
0.983,-0.038,0.164,6.165,-0.366,13.672
0.980,-0.049,0.156,5.249,0.732,12.329
0.979,-0.055,0.150,4.517,1.099,11.169
0.980,-0.058,0.145,4.089,1.221,10.742
0.981,-0.047,0.138,4.028,1.221,10.803
0.982,-0.026,0.131,3.906,1.404,10.925
0.986,-0.023,0.126,4.089,0.793,9.888
0.985,-0.021,0.131,1.648,0.000,8.057
0.984,-0.033,0.136,0.244,-0.977,5.859
0.983,-0.048,0.147,0.061,-1.526,4.272
0.984,-0.047,0.156,-0.488,-1.709,4.089
0.986,-0.044,0.161,0.000,-1.404,4.028
0.987,-0.042,0.158,0.183,-0.671,3.601
0.988,-0.048,0.156,-0.122,-0.122,2.502
0.989,-0.058,0.159,-1.099,-0.183,1.526
0.989,-0.068,0.164,-1.465,-0.366,1.221
0.988,-0.075,0.170,-0.977,-0.488,1.831
0.987,-0.081,0.173,-0.854,-0.061,2.136
0.988,-0.086,0.174,-1.221,0.305,2.625
0.990,-0.081,0.171,-0.916,0.916,3.235
0.990,-0.071,0.165,-0.244,1.770,3.967
0.989,-0.072,0.157,0.977,2.075,4.028
0.992,-0.089,0.155,0.732,2.014,3.418
0.986,-0.091,0.157,-0.366,2.075,3.662
0.986,-0.082,0.157,0.122,1.648,5.310
0.987,-0.066,0.155,1.465,1.465,6.165
0.988,-0.058,0.153,1.587,1.282,6.042
0.984,-0.050,0.154,0.549,1.221,5.249
0.983,-0.048,0.155,0.427,1.099,4.456
0.985,-0.053,0.152,1.282,0.732,3.418
0.985,-0.058,0.154,0.916,0.488,2.930

0.864,1.120,0.316,8.057,-7.385,-78.674
0.835,1.157,0.337,15.625,-0.916,-154.114
0.688,1.023,0.341,-1.831,8.789,-230.469
0.544,0.795,0.285,-29.053,21.301,-288.879
0.431,0.591,0.208,-31.189,24.963,-325.562
0.369,0.417,0.170,-24.719,19.592,-350.708
0.273,0.258,0.182,-29.907,10.986,-371.155
0.178,0.071,0.200,-43.579,4.883,-390.381
0.119,-0.142,0.221,-56.580,1.343,-407.349
0.131,-0.371,0.261,-61.523,-4.700,-419.250
0.180,-0.619,0.328,-59.265,-12.573,-431.641
0.208,-0.922,0.390,-52.795,-11.292,-452.759
0.214,-1.375,0.383,-44.006,-1.526,-472.900
0.202,-2.099,0.340,-54.138,11.658,-428.406
0.265,-2.426,0.234,-59.814,25.024,-330.872
0.317,-2.581,0.113,-27.832,29.663,-246.460
0.342,-2.569,0.063,-12.817,26.367,-164.734
0.380,-2.414,0.098,-13.306,16.235,-88.318
0.411,-2.160,0.191,-14.282,4.761,-23.743
0.417,-1.909,0.296,-13.489,0.366,24.170
0.402,-1.719,0.345,-5.310,4.700,56.824
0.365,-1.529,0.330,3.906,16.113,80.811
0.361,-1.347,0.269,16.174,26.245,98.389
0.378,-1.185,0.213,27.832,29.175,108.948
0.399,-1.060,0.182,32.593,26.306,113.220
0.426,-0.987,0.174,33.813,21.484,114.014
0.453,-0.954,0.177,33.752,15.869,114.075
0.484,-0.950,0.182,31.555,11.780,115.417
0.505,-0.931,0.187,26.123,9.705,120.850
0.530,-0.885,0.186,23.010,7.996,128.723
0.566,-0.825,0.185,21.179,5.737,136.597
0.610,-0.775,0.187,19.958,3.235,141.418
0.640,-0.734,0.200,19.348,0.549,143.860
0.671,-0.696,0.211,20.142,-2.258,145.020
0.701,-0.640,0.221,21.240,-3.967,145.996
0.717,-0.576,0.232,21.545,-5.188,147.217
0.732,-0.531,0.241,21.423,-5.432,146.301
0.746,-0.493,0.248,18.860,-4.517,142.761
0.753,-0.458,0.245,17.334,-2.258,138.794
0.761,-0.441,0.234,18.433,-0.061,134.216
0.763,-0.431,0.216,18.127,2.258,129.456
0.763,-0.417,0.195,16.357,4.700,126.282
0.781,-0.410,0.177,12.207,6.714,124.512
0.787,-0.404,0.166,5.920,7.996,122.803
0.793,-0.381,0.146,3.052,9.155,121.033
0.801,-0.334,0.116,5.371,10.620,119.934
0.816,-0.278,0.087,8.667,10.498,118.652
0.842,-0.226,0.073,11.169,7.629,114.502
0.829,-0.173,0.085,12.512,2.258,107.971
0.889,-0.167,0.108,13.794,-2.136,99.426
0.915,-0.233,0.106,12.024,-5.188,87.036
0.879,-0.219,0.179,-1.648,-6.958,80.200
0.910,-0.241,0.193,3.418,-3.845,74.890
0.901,-0.267,0.175,14.709,1.282,69.458
0.910,-0.264,0.149,12.817,7.324,65.857
0.913,-0.303,0.117,10.681,9.827,61.096
0.910,-0.302,0.113,6.531,6.958,62.256
0.920,-0.275,0.116,7.812,3.296,65.002
0.928,-0.249,0.121,9.949,0.732,64.941
0.934,-0.223,0.128,7.568,-0.671,63.538
0.939,-0.209,0.141,5.981,-1.343,60.669
0.944,-0.204,0.151,5.554,-1.221,56.946
0.946,-0.197,0.155,5.066,-0.916,53.467
0.947,-0.191,0.156,5.066,-0.610,50.415
0.952,-0.192,0.158,4.272,-0.732,47.607
0.955,-0.203,0.160,3.357,-1.221,44.922
0.952,-0.213,0.156,3.540,-0.793,42.908
0.957,-0.218,0.146,4.028,0.610,42.236
0.957,-0.217,0.136,5.371,1.099,42.480
0.959,-0.211,0.135,6.714,0.977,43.091
