aX,aY,aZ,gX,gY,gZ
0.526,0.509,0.873,42.908,11.230,149.536
0.531,0.538,0.852,38.452,27.954,133.057
0.513,0.572,0.829,33.447,42.419,114.807
0.506,0.581,0.792,32.593,54.260,95.886
0.519,0.591,0.744,29.785,63.354,77.637
0.528,0.592,0.693,26.367,67.810,61.340
0.531,0.601,0.646,23.071,68.604,46.387
0.545,0.620,0.617,18.921,64.148,31.677
0.570,0.635,0.604,13.306,56.152,14.404
0.564,0.610,0.604,10.071,48.340,-6.165
0.579,0.565,0.619,3.906,42.053,-26.611
0.577,0.482,0.644,0.305,35.278,-42.603
0.588,0.424,0.683,0.061,27.893,-49.255
0.589,0.419,0.734,2.930,23.010,-49.316
0.581,0.438,0.778,8.484,23.865,-47.974
0.591,0.441,0.781,13.367,31.616,-50.781
0.599,0.437,0.761,15.320,41.443,-55.054
0.628,0.431,0.746,17.578,48.035,-59.021
0.631,0.406,0.740,19.470,51.758,-65.125
0.657,0.355,0.725,22.888,55.298,-72.754
0.680,0.297,0.710,25.696,58.411,-77.454
0.700,0.306,0.739,28.992,59.753,-78.552
0.736,0.324,0.810,37.720,61.218,-78.186
0.754,0.262,0.866,40.405,70.068,-84.900
0.760,0.168,0.889,31.616,86.670,-94.482
0.805,-0.003,0.875,31.677,104.858,-99.243
0.896,-0.235,0.840,38.086,117.676,-96.375
1.006,-0.477,0.825,33.447,118.652,-85.388
1.060,-0.620,0.923,11.169,109.436,-68.359
1.127,-0.846,1.105,-0.122,98.633,-47.852
1.077,-1.081,1.345,-9.155,95.154,-19.226
0.961,-1.354,1.589,-35.950,113.586,37.170
0.801,-1.438,1.738,-58.777,161.499,107.117
0.571,-1.404,1.656,-49.377,231.506,179.993
0.302,-1.146,1.313,-43.640,313.782,259.766
0.042,-0.785,0.779,-52.734,396.606,326.538
-0.100,-0.515,0.111,-49.438,455.200,360.840
-0.118,-0.340,-0.523,-45.166,475.830,377.686
-0.272,-0.122,-0.979,-25.879,447.632,390.015
-0.370,0.256,-1.270,20.752,378.174,407.166
-0.409,0.682,-1.362,78.613,284.180,432.434
-0.357,1.075,-1.264,131.592,171.509,452.881
-0.399,1.215,-0.933,130.310,58.838,479.370
-0.311,1.980,-0.459,99.854,-25.818,456.726
-0.187,2.068,-0.114,124.878,-80.383,368.408
-0.030,2.285,0.268,90.576,-110.840,286.804
0.036,2.403,0.592,41.809,-120.544,202.087
0.032,2.368,0.839,16.602,-110.046,112.366
-0.001,2.271,1.009,-1.587,-79.529,34.302
-0.031,2.125,1.026,-6.409,-29.419,-30.884
0.006,1.919,0.852,-3.418,29.236,-89.539
0.038,1.718,0.595,-8.301,74.280,-136.475
0.069,1.540,0.356,-14.465,93.323,-170.349
0.096,1.360,0.181,-15.015,90.942,-193.054
0.193,1.175,0.085,-13.611,76.111,-205.566
0.318,0.935,0.058,-12.268,56.824,-209.717
0.387,0.742,0.075,-20.203,38.391,-203.674
0.417,0.638,0.062,-26.550,26.672,-187.927
0.491,0.634,-0.004,-25.269,20.996,-167.908
0.544,0.626,-0.091,-18.250,13.184,-152.344
0.554,0.594,-0.116,-17.578,-0.732,-145.508
0.569,0.580,-0.087,-26.184,-16.113,-141.235
0.612,0.561,-0.067,-29.297,-28.381,-134.460
0.643,0.519,-0.045,-32.532,-39.246,-128.723
0.771,0.440,-0.010,-42.175,-51.270,-126.343
0.720,0.409,0.093,-56.152,-66.528,-125.244
0.711,0.432,0.178,-54.688,-72.327,-123.718
0.750,0.446,0.208,-32.043,-69.763,-124.695
0.757,0.499,0.218,-20.752,-61.646,-126.404
0.783,0.485,0.215,-14.404,-52.551,-134.521
0.745,0.416,0.222,-11.353,-44.373,-149.780
0.747,0.326,0.193,-5.920,-35.645,-157.166
0.774,0.258,0.147,-16.235,-26.550,-154.785
0.811,0.242,0.112,-26.245,-18.250,-149.780
0.826,0.212,0.093,-23.437,-17.944,-140.625
0.843,0.194,0.088,-19.104,-22.156,-134.338
0.866,0.155,0.090,-19.104,-29.114,-132.568
0.894,0.105,0.116,-19.226,-38.757,-131.653
0.911,0.080,0.162,-18.250,-48.401,-127.991
0.923,0.060,0.216,-11.841,-55.176,-121.826
0.905,0.043,0.261,-4.822,-57.129,-112.366
0.919,0.052,0.296,-3.357,-52.795,-101.685
0.927,0.071,0.325,-3.479,-45.898,-90.576
0.941,0.078,0.335,-3.296,-36.987,-80.566
0.868,0.121,0.332,-5.432,-26.123,-71.106
0.924,0.191,0.293,-3.540,-14.282,-61.890
0.950,0.178,0.269,6.775,-8.301,-60.730
0.956,0.158,0.278,3.906,-5.676,-64.270
0.942,0.137,0.305,-4.761,-2.991,-66.406
0.966,0.098,0.318,-4.517,0.244,-66.406
0.973,0.059,0.315,-2.014,5.615,-64.941
0.965,0.033,0.296,-1.160,12.756,-63.660
0.969,0.012,0.257,2.014,19.287,-60.730
0.976,-0.001,0.211,9.766,21.484,-55.237
0.997,-0.010,0.162,14.893,18.250,-47.974
0.988,-0.002,0.141,12.329,10.803,-39.734
0.983,0.017,0.137,5.005,0.122,-31.067
1.002,0.024,0.148,-0.610,-11.719,-22.522
1.024,0.031,0.184,-5.493,-24.475,-14.160
1.020,0.071,0.233,-12.634,-36.011,-5.676
1.000,0.105,0.256,-16.846,-42.480,0.793
1.007,0.116,0.265,-14.221,-43.457,4.150
1.013,0.121,0.285,-9.155,-43.884,5.371
0.981,0.137,0.315,-4.211,-44.495,7.446
0.974,0.163,0.335,-0.854,-41.077,8.057
0.964,0.155,0.333,2.075,-35.278,6.042
0.949,0.147,0.317,2.197,-32.593,5.798
0.881,0.156,0.321,-1.160,-30.701,7.141
0.790,0.214,0.431,-3.174,-31.982,5.432
0.857,0.234,0.424,-0.427,-31.799,0.305
0.852,0.280,0.437,-5.615,-17.761,-0.305
0.859,0.313,0.442,-5.676,-13.550,-6.653
0.953,0.276,0.384,0.183,-7.202,-18.799
0.979,0.216,0.342,-1.526,-0.305,-32.532
0.951,0.134,0.317,-19.043,6.775,-47.119
0.921,0.070,0.299,-41.809,12.207,-56.946
0.936,0.047,0.265,-54.871,13.672,-56.641
0.950,0.007,0.227,-44.067,12.817,-52.429
0.935,-0.063,0.198,-11.353,7.385,-46.448

1.107,-0.647,0.820,27.649,24.170,-69.763
1.089,-1.086,0.975,49.622,28.442,-110.046
0.970,-1.780,1.109,52.979,45.654,-107.300
0.838,-2.208,1.222,30.945,84.778,-24.170
0.629,-2.429,1.126,42.419,142.639,79.346
0.338,-2.362,0.739,86.365,213.135,197.449
0.056,-1.786,0.119,127.930,274.109,324.646
-0.110,-1.103,-0.528,158.630,302.490,429.993
-0.188,-0.525,-1.005,167.358,282.837,495.728
-0.265,-0.015,-1.235,161.011,216.125,538.635
-0.255,0.429,-1.188,164.856,120.361,566.956
-0.228,0.744,-0.961,199.280,12.756,581.970
-0.252,0.881,-0.577,223.877,-89.172,601.501
-0.275,0.963,-0.138,203.674,-161.499,628.967
-0.093,1.677,0.290,164.307,-190.186,595.947
0.159,2.791,0.621,152.527,-181.274,510.803
-0.513,2.951,0.993,15.869,-126.648,334.534
0.011,2.259,0.756,23.682,-60.303,159.607
0.124,2.054,0.716,21.545,-26.855,80.933
0.115,2.044,0.799,31.616,-27.283,38.635
0.142,1.925,0.826,30.334,-25.085,-9.460
0.177,1.732,0.775,33.081,-9.949,-55.603
0.216,1.622,0.683,28.931,4.761,-84.778
0.269,1.579,0.565,13.916,13.977,-102.905
0.314,1.512,0.463,-0.732,13.611,-119.995
0.371,1.380,0.394,-10.437,4.761,-137.268
0.445,1.211,0.380,-18.311,-7.874,-152.405
0.501,1.026,0.400,-24.841,-19.592,-163.452
0.564,0.870,0.392,-32.715,-23.865,-168.945
0.608,0.791,0.379,-46.692,-21.484,-167.786
0.648,0.740,0.353,-48.035,-15.747,-164.673
0.668,0.704,0.317,-39.185,-9.277,-161.133
0.682,0.717,0.286,-38.635,-3.357,-156.982
0.672,0.745,0.253,-41.626,0.977,-156.555
0.672,0.743,0.214,-45.837,4.395,-161.255
0.659,0.671,0.189,-53.040,7.019,-173.218
0.653,0.584,0.158,-53.467,7.263,-183.960
0.663,0.484,0.144,-51.819,5.371,-192.261
0.681,0.380,0.161,-51.086,1.648,-200.500
0.705,0.279,0.194,-47.241,-1.770,-207.275
0.729,0.164,0.216,-41.077,-3.052,-210.815
0.737,0.086,0.217,-37.537,-1.160,-208.984
0.750,0.061,0.180,-33.569,1.770,-199.768
0.749,0.077,0.121,-27.222,1.648,-187.134
0.765,0.098,0.087,-21.362,-4.517,-177.368
0.772,0.085,0.092,-16.785,-15.198,-172.852
0.784,0.076,0.133,-18.066,-24.780,-170.471
0.813,0.062,0.182,-19.775,-31.006,-169.312
0.817,0.016,0.231,-17.883,-33.508,-168.640
0.834,-0.024,0.259,-17.456,-31.250,-166.565
0.862,-0.079,0.270,-16.052,-25.757,-164.734
0.884,-0.153,0.262,-13.123,-19.287,-164.062
0.900,-0.228,0.248,-12.939,-12.878,-160.889
0.918,-0.272,0.235,-13.000,-8.362,-152.405
0.933,-0.316,0.234,-8.362,-6.836,-139.404
0.955,-0.367,0.250,-4.333,-7.874,-124.634
0.975,-0.400,0.279,-3.479,-8.423,-108.582
0.993,-0.417,0.299,-2.441,-6.226,-90.332
0.997,-0.403,0.316,0.244,-1.160,-71.350
0.999,-0.350,0.311,5.676,5.920,-52.551
1.001,-0.294,0.287,12.268,13.184,-38.940
1.002,-0.267,0.262,14.587,18.188,-32.043
0.989,-0.264,0.249,11.902,20.996,-28.259
1.002,-0.270,0.240,9.155,22.339,-24.231
0.993,-0.271,0.234,8.911,24.170,-19.104
0.967,-0.254,0.222,9.888,26.611,-12.390
0.966,-0.213,0.193,11.169,29.663,-5.249
0.966,-0.170,0.170,13.428,30.151,-0.793
0.947,-0.132,0.162,13.611,27.771,1.709
0.969,-0.102,0.151,10.742,24.475,2.747
0.961,-0.099,0.156,7.690,20.935,1.709
0.942,-0.101,0.156,3.296,17.334,-0.183
0.974,-0.098,0.151,0.061,15.320,-0.671
0.953,-0.108,0.154,0.488,11.780,-1.221
0.958,-0.107,0.154,0.305,8.850,-1.221
0.961,-0.116,0.148,0.977,6.958,-1.404
0.964,-0.129,0.146,0.488,4.944,-1.770
0.968,-0.139,0.148,-1.587,2.930,-1.648
0.973,-0.155,0.150,-2.686,0.732,-1.038
0.973,-0.158,0.161,-4.211,-0.427,0.549
0.971,-0.154,0.175,-5.310,-1.221,2.808
0.984,-0.149,0.182,-5.859,-1.282,4.150
0.960,-0.140,0.193,-6.165,-0.977,5.432
0.988,-0.126,0.192,-5.005,-0.366,6.592
0.971,-0.115,0.197,-3.723,0.916,6.531
0.981,-0.112,0.195,-3.845,2.136,5.676
0.974,-0.123,0.190,-2.075,2.502,3.967
0.970,-0.126,0.180,-1.526,2.502,3.662
0.979,-0.122,0.175,-1.587,2.747,4.639
0.974,-0.116,0.176,-0.854,2.014,4.761
0.973,-0.109,0.179,-0.427,1.160,5.493
0.971,-0.098,0.185,-0.977,0.305,6.042
0.975,-0.083,0.193,-1.099,-0.732,6.104
0.977,-0.077,0.202,-0.610,-1.404,5.249
0.973,-0.073,0.210,-0.488,-1.404,4.333
0.972,-0.068,0.211,-0.305,-0.305,3.174
0.970,-0.068,0.207,0.549,0.854,1.831
0.978,-0.076,0.198,0.671,1.465,0.305
0.975,-0.087,0.200,-0.366,1.526,-0.916
0.975,-0.103,0.203,-0.793,1.404,-1.221
0.979,-0.117,0.202,-0.427,0.977,-0.977
0.977,-0.120,0.201,-0.732,0.916,-0.122
0.974,-0.111,0.202,-1.587,1.160,1.343
0.978,-0.104,0.201,-0.793,1.526,2.075
0.978,-0.093,0.204,-0.305,1.343,2.197
0.979,-0.092,0.210,0.305,0.916,1.343
0.980,-0.097,0.213,1.038,1.038,0.610
0.978,-0.092,0.214,0.977,2.075,0.305
0.976,-0.092,0.209,1.038,3.235,0.000
0.975,-0.098,0.195,1.465,4.211,-0.671
0.975,-0.108,0.184,0.610,4.578,-0.977
0.973,-0.119,0.180,-0.305,3.784,-0.977
0.975,-0.120,0.185,-0.732,2.441,-0.488
0.976,-0.112,0.196,-0.427,1.160,0.793
0.974,-0.104,0.204,0.549,0.854,1.404
0.974,-0.090,0.210,0.549,1.160,1.282
0.978,-0.085,0.207,0.366,2.136,0.732
0.974,-0.088,0.203,-0.427,3.906,-0.305
0.972,-0.086,0.191,-1.465,5.737,-1.038

1.051,-0.740,0.258,17.639,38.208,0.061
1.048,-0.941,0.287,37.903,38.269,-2.502
1.052,-1.214,0.324,46.143,38.696,14.099
0.977,-1.509,0.364,31.494,41.077,66.711
0.877,-1.647,0.336,13.184,54.260,138.123
0.740,-1.696,0.195,7.568,76.477,209.778
0.501,-1.606,-0.046,-1.038,98.999,285.339
0.328,-1.284,-0.336,-17.700,113.586,359.009
0.191,-0.893,-0.588,-16.113,105.652,423.218
0.055,-0.440,-0.716,3.845,72.021,472.595
-0.035,0.061,-0.706,37.048,22.095,507.019
-0.050,0.652,-0.554,70.679,-33.691,528.381
-0.015,0.815,-0.377,89.294,-83.252,554.565
0.090,1.445,-0.065,67.261,-114.502,541.504
0.177,1.756,0.187,79.651,-126.038,450.317
0.241,1.936,0.370,94.238,-121.704,365.540
0.305,2.097,0.491,58.289,-101.440,285.583
0.320,2.084,0.537,25.391,-74.219,196.960
0.321,1.906,0.562,10.376,-49.561,113.159
0.332,1.785,0.611,6.836,-31.982,53.650
0.374,1.720,0.652,27.466,-18.799,11.841
0.425,1.634,0.669,44.006,-4.333,-22.888
0.453,1.519,0.637,39.429,12.573,-53.833
0.539,1.422,0.564,30.090,27.344,-75.256
0.503,1.389,0.493,24.536,34.668,-87.158
0.568,1.303,0.401,16.602,37.842,-97.412
0.575,1.298,0.356,-0.305,33.569,-104.919
0.614,1.223,0.312,-8.789,30.334,-117.493
0.640,1.047,0.278,-11.658,29.541,-135.315
0.669,0.852,0.237,-19.714,29.419,-149.414
0.688,0.670,0.204,-23.193,27.710,-153.748
0.702,0.572,0.196,-25.269,26.611,-148.010
0.721,0.499,0.185,-24.414,28.137,-141.052
0.731,0.433,0.149,-23.682,31.677,-135.071
0.727,0.379,0.094,-26.306,36.133,-129.028
0.729,0.334,0.035,-26.855,38.818,-122.864
0.733,0.306,-0.013,-25.208,37.292,-116.333
0.739,0.294,-0.045,-23.682,32.104,-109.680
0.748,0.284,-0.059,-23.376,25.024,-103.394
0.759,0.278,-0.057,-24.170,17.883,-98.450
0.777,0.249,-0.056,-24.231,10.803,-95.398
0.797,0.208,-0.048,-24.902,3.479,-93.079
0.816,0.176,-0.025,-24.597,-4.150,-89.783
0.846,0.146,0.003,-19.714,-12.146,-85.510
0.874,0.119,0.036,-13.916,-17.334,-80.872
0.892,0.118,0.070,-10.071,-19.287,-75.012
0.918,0.133,0.087,-5.310,-19.409,-68.481
0.934,0.159,0.099,-3.357,-17.700,-61.523
0.937,0.214,0.109,-5.676,-14.709,-55.420
0.944,0.250,0.104,-3.540,-12.268,-53.040
0.948,0.268,0.100,-2.563,-11.902,-53.833
0.955,0.281,0.115,-4.456,-13.611,-55.298
0.962,0.278,0.149,-6.165,-16.663,-57.434
0.970,0.249,0.185,-6.775,-18.311,-60.303
0.979,0.202,0.213,-7.507,-17.822,-62.805
0.983,0.147,0.228,-7.080,-14.893,-63.843
0.990,0.110,0.234,-4.822,-10.315,-61.646
0.986,0.097,0.225,-0.671,-5.371,-56.824
0.984,0.112,0.202,3.662,-0.977,-50.659
0.981,0.134,0.173,6.714,2.258,-45.776
0.970,0.151,0.144,8.301,3.479,-43.274
0.965,0.163,0.119,7.812,2.380,-41.565
0.956,0.183,0.109,5.127,0.061,-39.673
0.950,0.188,0.106,4.089,-2.930,-38.635
0.947,0.184,0.113,2.075,-6.897,-38.818
0.949,0.173,0.130,-0.977,-10.864,-39.368
0.954,0.152,0.150,-2.319,-13.489,-40.039
0.958,0.128,0.167,-2.197,-14.526,-40.344
0.963,0.106,0.174,-2.075,-14.404,-39.490
0.974,0.089,0.177,-2.502,-13.428,-38.208
0.979,0.069,0.188,-2.441,-12.573,-36.438
0.982,0.050,0.193,-1.282,-10.498,-34.668
0.983,0.041,0.187,0.183,-7.324,-31.555
0.985,0.037,0.173,2.075,-4.028,-27.771
0.984,0.053,0.170,1.648,-2.075,-23.987
0.982,0.071,0.171,1.892,-1.648,-20.874
0.985,0.067,0.169,3.174,-1.526,-19.836
0.988,0.067,0.178,1.465,-1.770,-19.348
0.986,0.062,0.187,0.977,-1.770,-19.104
0.986,0.067,0.198,2.625,-1.465,-18.127
0.982,0.074,0.200,4.578,-0.732,-17.395
0.981,0.076,0.191,5.371,0.671,-17.395
0.979,0.072,0.181,3.967,2.014,-17.639
0.977,0.070,0.184,2.441,2.014,-17.700
0.979,0.063,0.190,3.235,0.610,-17.761
0.982,0.056,0.193,3.479,0.183,-17.639
0.983,0.062,0.197,1.709,0.549,-17.273
0.980,0.054,0.195,2.625,1.404,-17.578
0.983,0.044,0.189,3.540,2.869,-18.188
0.982,0.031,0.177,2.869,4.028,-18.066
0.981,0.023,0.169,2.319,4.272,-17.029
0.988,0.012,0.172,1.282,3.479,-15.564
0.976,0.013,0.173,-0.305,3.052,-14.282
0.982,-0.004,0.157,0.671,4.028,-13.367
0.982,-0.017,0.154,2.441,2.136,-11.963
0.982,-0.008,0.167,0.183,0.061,-9.399
0.981,0.002,0.181,0.427,-1.526,-7.263
0.981,0.013,0.192,1.404,-2.319,-5.981
0.987,0.030,0.197,0.916,-1.892,-5.005
0.984,0.034,0.197,0.732,-0.732,-4.944
0.978,0.049,0.196,0.366,0.671,-4.700
0.979,0.059,0.189,1.587,1.831,-5.310
0.984,0.045,0.182,3.418,2.502,-6.775
0.977,0.041,0.184,1.099,2.625,-7.874
0.984,0.019,0.181,1.221,2.319,-8.850
0.990,-0.001,0.185,2.686,1.038,-9.033
0.988,-0.008,0.189,1.221,0.488,-7.568
0.986,-0.008,0.190,0.916,0.549,-5.310
0.989,-0.000,0.190,1.892,0.793,-2.991
0.983,0.020,0.195,1.404,1.038,-1.343
0.982,0.030,0.193,1.526,1.831,-0.916
0.981,0.039,0.190,1.160,2.441,-1.038
0.981,0.035,0.184,1.160,2.563,-1.587
0.981,0.021,0.179,0.793,2.502,-2.441
0.979,0.016,0.179,-1.221,2.197,-2.380
0.979,0.025,0.184,-1.343,1.831,-1.709
0.978,0.026,0.185,0.427,1.648,-1.465
0.977,0.029,0.185,0.183,2.075,-1.709
0.974,0.034,0.188,-0.671,1.770,-1.953

1.157,-0.769,0.511,23.071,28.687,-11.169
1.197,-1.040,0.544,23.560,48.218,-4.761
1.095,-1.409,0.536,12.939,69.275,22.644
0.942,-1.672,0.476,-3.479,98.328,91.797
0.766,-1.613,0.304,-1.831,135.376,179.626
0.563,-1.225,0.032,33.142,165.405,268.860
0.457,-0.632,-0.259,64.026,177.307,341.309
0.331,-0.034,-0.488,85.449,161.682,381.592
0.299,0.400,-0.682,92.896,127.441,395.813
0.312,0.618,-0.744,76.843,76.538,396.790
0.358,0.771,-0.641,47.546,13.977,383.545
0.335,0.853,-0.411,27.039,-43.396,346.619
0.324,0.985,-0.153,12.634,-77.515,302.673
0.300,1.129,0.029,12.634,-86.060,267.578
0.311,1.316,0.129,19.226,-81.421,243.958
0.347,1.509,0.203,25.940,-76.843,218.079
0.396,1.657,0.315,29.724,-75.256,181.702
0.441,1.744,0.458,34.241,-73.364,135.437
0.474,1.773,0.568,38.757,-61.646,85.083
0.501,1.698,0.567,41.443,-35.217,32.593
0.536,1.572,0.463,40.161,-4.761,-12.146
0.556,1.462,0.338,36.133,15.259,-43.335
0.589,1.371,0.248,32.043,20.203,-64.209
0.631,1.277,0.216,24.536,13.611,-79.163
0.669,1.168,0.229,10.803,2.563,-92.102
0.714,1.036,0.262,-1.160,-6.042,-103.699
0.774,0.927,0.296,-10.925,-10.620,-110.718
0.744,0.843,0.319,-18.005,-8.911,-113.464
0.783,0.749,0.287,-21.912,-1.221,-115.173
0.755,0.708,0.268,-28.320,5.371,-114.441
0.762,0.679,0.222,-31.616,12.207,-114.563
0.759,0.623,0.159,-31.860,18.555,-119.202
0.745,0.526,0.109,-38.086,21.912,-125.305
0.747,0.430,0.063,-40.283,22.095,-128.723
0.751,0.363,0.039,-39.551,19.348,-127.502
0.757,0.312,0.028,-39.368,17.395,-124.939
0.779,0.266,0.004,-38.818,15.991,-121.582
0.796,0.207,-0.021,-39.001,12.817,-118.958
0.819,0.149,-0.040,-41.504,7.690,-115.417
0.839,0.104,-0.040,-42.664,1.526,-109.741
0.861,0.071,-0.030,-39.917,-4.089,-102.539
0.887,0.056,-0.013,-36.377,-9.766,-94.421
0.906,0.059,0.008,-33.386,-14.832,-86.182
0.925,0.079,0.027,-29.175,-18.005,-79.102
0.943,0.096,0.055,-23.804,-20.203,-73.975
0.961,0.104,0.085,-19.653,-21.240,-70.862
0.971,0.115,0.111,-18.005,-20.264,-69.092
0.982,0.112,0.122,-14.038,-18.250,-68.176
0.993,0.103,0.132,-11.414,-15.869,-66.956
0.999,0.095,0.137,-10.254,-13.489,-65.491
0.996,0.096,0.139,-8.423,-10.803,-62.805
0.998,0.109,0.140,-6.714,-8.850,-59.631
0.996,0.107,0.141,-4.517,-8.057,-57.861
0.990,0.096,0.139,-4.089,-7.202,-56.946
0.993,0.074,0.139,-4.456,-6.836,-55.725
0.997,0.047,0.145,-3.845,-7.385,-53.772
0.996,0.050,0.157,-3.418,-7.324,-50.110
1.001,0.054,0.161,-0.732,-6.226,-45.654
0.997,0.056,0.158,1.343,-3.479,-42.053
0.993,0.068,0.141,1.709,-0.549,-38.696
0.989,0.082,0.118,1.770,1.831,-35.461
0.982,0.092,0.101,1.770,2.563,-33.325
0.977,0.091,0.090,1.526,1.526,-32.654
0.981,0.073,0.088,0.610,-0.183,-32.471
0.981,0.065,0.107,-0.793,-2.808,-31.677
0.984,0.067,0.135,-0.549,-4.700,-29.724
0.985,0.065,0.149,2.075,-3.784,-28.198
0.983,0.064,0.142,3.479,-1.099,-27.100
0.985,0.063,0.125,3.479,1.648,-26.367
0.982,0.059,0.106,3.357,2.808,-25.635
0.982,0.060,0.093,2.563,2.197,-24.841
0.980,0.059,0.090,1.953,0.488,-23.804
0.982,0.048,0.093,2.014,-1.099,-23.376
0.984,0.045,0.106,0.000,-2.380,-22.766
0.989,0.039,0.122,-1.404,-3.601,-21.729
0.994,0.022,0.137,-0.916,-4.089,-21.667
1.000,0.002,0.145,-1.038,-3.662,-21.362
1.000,-0.008,0.148,-1.465,-2.380,-20.264
0.996,-0.012,0.141,-0.244,-0.732,-18.433
0.995,-0.008,0.125,1.526,0.854,-16.113
0.996,-0.003,0.114,2.136,1.343,-14.282
0.995,-0.005,0.110,2.136,0.244,-13.245
0.997,-0.014,0.113,1.709,-1.160,-12.268
0.996,-0.012,0.128,0.427,-2.563,-10.681
0.996,-0.014,0.141,0.122,-3.052,-8.850
0.995,0.001,0.155,-0.793,-2.441,-6.958
0.995,0.014,0.159,0.061,-1.465,-5.432
0.992,0.029,0.150,1.282,0.061,-5.066
0.986,0.039,0.142,1.343,1.343,-5.554
0.986,0.038,0.133,1.465,1.892,-6.897
0.988,0.024,0.125,1.526,1.648,-8.057
0.987,0.009,0.125,0.549,1.160,-8.789
0.991,-0.000,0.130,-0.244,0.183,-8.301
0.992,-0.005,0.141,-0.366,-0.854,-7.263
0.994,-0.009,0.146,-0.061,-1.038,-6.287
0.994,-0.023,0.140,0.183,-0.305,-5.432
0.997,-0.037,0.127,-1.160,0.671,-4.028
0.992,-0.029,0.124,-3.540,0.916,-1.526
0.992,-0.019,0.120,-2.808,0.061,0.549
0.994,-0.010,0.120,-2.930,-0.854,2.502
0.989,0.007,0.128,-5.188,-1.282,3.784
0.987,0.021,0.134,-4.150,-1.587,3.967
0.988,0.034,0.141,-2.563,-1.648,3.540
0.985,0.035,0.146,-2.563,-1.831,2.136
0.991,0.024,0.149,-2.930,-1.648,0.244
0.990,0.017,0.159,-3.723,-1.099,-0.854
0.990,0.008,0.166,-2.441,-0.549,-1.038
0.991,-0.000,0.164,-1.892,0.549,-1.099
0.986,0.002,0.157,-2.563,2.502,-0.793
0.990,0.007,0.142,-2.075,3.601,-0.244
0.989,0.010,0.129,-0.793,3.113,0.122
0.989,0.015,0.134,-1.343,1.648,0.427
0.989,0.015,0.144,-1.343,0.000,0.122
0.991,0.018,0.157,-0.671,-0.732,-0.183
0.994,0.019,0.164,0.366,-0.305,-0.549
0.995,0.006,0.158,0.916,0.977,-1.038
0.990,0.009,0.152,-0.916,2.747,-1.099
0.991,0.011,0.140,-0.793,3.113,-0.977
0.989,0.006,0.136,0.427,2.747,-1.099

1.215,-0.673,0.443,17.700,46.326,-32.043
1.266,-0.978,0.456,22.766,56.885,-56.580
1.200,-1.497,0.456,24.353,66.833,-73.303
1.087,-1.962,0.454,-1.221,80.933,-12.634
0.876,-2.011,0.355,-17.517,107.788,93.079
0.651,-1.848,0.121,20.386,135.437,196.899
0.517,-1.447,-0.168,76.721,149.292,294.739
0.354,-0.894,-0.326,111.450,133.423,368.286
0.209,-0.387,-0.405,124.756,102.112,406.677
0.135,0.135,-0.467,133.972,68.665,428.284
0.096,0.530,-0.499,146.606,33.752,441.772
0.074,0.778,-0.447,141.357,-3.601,458.984
0.153,1.268,-0.306,114.258,-39.246,451.904
0.161,1.530,-0.136,119.873,-70.679,370.605
0.223,1.598,0.035,112.000,-89.661,295.349
0.246,1.626,0.206,54.626,-91.980,231.873
0.281,1.596,0.325,28.320,-84.778,181.763
0.328,1.653,0.409,33.325,-71.899,147.644
0.375,1.757,0.473,39.307,-56.030,117.615
0.412,1.811,0.505,42.603,-39.001,80.200
0.448,1.767,0.502,43.518,-21.179,36.804
0.486,1.666,0.453,41.077,-3.662,-3.601
0.513,1.573,0.371,36.682,9.338,-33.752
0.549,1.509,0.294,30.579,14.832,-54.626
0.577,1.443,0.252,20.935,12.695,-71.411
0.597,1.365,0.239,7.202,6.897,-86.304
0.618,1.271,0.227,-7.874,0.977,-100.037
0.643,1.143,0.236,-22.095,-4.333,-114.563
0.664,0.985,0.271,-33.081,-10.376,-126.892
0.689,0.821,0.324,-41.870,-14.099,-135.864
0.708,0.670,0.367,-48.462,-12.634,-140.991
0.725,0.541,0.379,-50.598,-4.517,-142.090
0.741,0.450,0.352,-49.561,8.118,-139.587
0.750,0.375,0.280,-46.387,22.888,-134.949
0.755,0.320,0.180,-43.762,34.912,-130.127
0.760,0.283,0.076,-40.955,41.809,-124.878
0.776,0.245,-0.009,-36.377,42.603,-119.995
0.793,0.213,-0.061,-33.508,37.720,-115.601
0.812,0.197,-0.088,-32.776,30.090,-110.535
0.835,0.181,-0.097,-31.128,21.973,-105.652
0.855,0.157,-0.094,-31.250,14.648,-101.746
0.873,0.118,-0.084,-33.325,7.019,-98.389
0.897,0.082,-0.063,-36.438,-0.244,-94.055
0.917,0.043,-0.029,-36.804,-7.080,-88.379
0.937,0.033,0.020,-36.438,-13.367,-81.360
0.955,0.036,0.071,-33.936,-16.113,-73.364
0.963,0.069,0.104,-31.189,-13.977,-65.308
0.964,0.107,0.095,-26.306,-8.057,-58.960
0.965,0.151,0.061,-21.912,-1.831,-55.237
0.957,0.187,0.021,-18.738,1.038,-54.688
0.951,0.197,-0.009,-13.855,0.488,-56.702
0.957,0.195,-0.009,-10.864,-3.235,-59.570
0.964,0.177,0.023,-8.850,-10.315,-62.134
0.982,0.144,0.078,-7.019,-17.456,-63.599
1.001,0.099,0.135,-6.592,-21.423,-63.477
1.013,0.068,0.189,-7.446,-21.423,-60.913
1.020,0.052,0.219,-6.775,-16.968,-56.458
1.020,0.049,0.216,-5.005,-9.583,-50.720
1.022,0.055,0.188,-4.700,-2.258,-45.288
1.015,0.067,0.156,-5.676,2.747,-40.649
1.010,0.073,0.121,-4.639,5.798,-36.926
1.004,0.097,0.105,-3.235,6.348,-33.752
1.000,0.121,0.097,-2.258,5.798,-31.128
0.994,0.131,0.084,-0.916,5.615,-30.518
0.986,0.125,0.072,-0.732,6.042,-31.189
0.978,0.112,0.066,-1.465,5.432,-31.799
0.971,0.100,0.067,-2.136,4.272,-31.677
0.969,0.095,0.065,-2.258,3.479,-30.762
0.972,0.086,0.062,-2.014,2.869,-29.663
0.974,0.079,0.064,-2.563,2.197,-28.870
0.974,0.077,0.068,-2.808,1.282,-27.954
0.978,0.078,0.070,-2.686,1.038,-26.611
0.981,0.075,0.070,-2.625,1.526,-26.123
0.983,0.065,0.064,-2.563,2.319,-26.245
0.988,0.048,0.057,-2.625,2.441,-26.550
0.993,0.033,0.055,-3.113,2.075,-26.245
0.996,0.015,0.059,-2.625,0.549,-25.330
1.000,-0.000,0.067,-2.380,-0.488,-23.865
1.001,-0.004,0.080,-2.747,-1.099,-21.790
1.001,-0.003,0.089,-1.770,-0.793,-19.287
0.998,0.019,0.093,-1.038,0.305,-16.113
0.999,0.042,0.087,-0.122,1.770,-14.038
0.994,0.053,0.079,-0.427,2.747,-13.916
0.991,0.049,0.072,-2.197,3.235,-15.015
0.989,0.039,0.068,-3.235,2.747,-15.991
0.988,0.023,0.067,-2.930,1.770,-16.418
0.992,0.008,0.067,-2.869,1.099,-16.296
0.993,-0.000,0.072,-2.563,0.183,-15.625
0.997,-0.007,0.078,-1.282,-0.427,-14.587
0.995,0.004,0.089,-0.854,-0.610,-12.634
0.994,0.021,0.095,0.122,-0.183,-11.047
0.996,0.031,0.091,0.366,0.549,-10.498
0.995,0.032,0.082,-0.305,1.892,-11.169
0.992,0.024,0.075,-1.038,2.258,-12.268
0.991,0.007,0.066,-1.282,1.404,-12.939
0.998,-0.009,0.069,-2.258,0.488,-12.939
1.001,-0.025,0.084,-3.174,-0.977,-12.085
1.005,-0.051,0.095,-2.380,-1.892,-10.986
1.006,-0.057,0.101,-3.052,-1.038,-8.789
1.005,-0.057,0.098,-2.197,0.061,-5.859
1.006,-0.048,0.091,0.000,0.610,-3.235
1.007,-0.028,0.092,0.305,0.671,-1.343
1.003,-0.011,0.098,0.793,0.305,-0.671
1.006,-0.007,0.099,1.648,0.000,-0.549
1.001,0.001,0.104,-0.061,0.427,-0.488
1.001,0.005,0.106,-0.732,0.916,-0.732
1.000,0.001,0.101,0.427,1.404,-1.038
0.998,0.002,0.099,-0.244,2.014,-1.221
0.991,0.006,0.097,-0.671,2.625,-1.160
0.992,0.008,0.093,0.122,2.747,-1.160
0.992,0.008,0.093,0.183,2.808,-1.160
0.993,0.005,0.095,-0.244,2.625,-1.282
0.995,-0.000,0.090,-0.122,2.808,-1.404
0.995,0.000,0.085,-0.427,3.296,-1.160
0.996,0.001,0.079,-0.061,2.991,-0.916
0.999,0.006,0.080,-0.244,2.014,-0.732
0.997,0.010,0.083,-0.549,1.099,-0.610
0.998,0.011,0.090,-0.488,0.549,-0.732
1.001,0.004,0.100,-0.977,-0.244,-0.977

1.255,-1.020,0.464,8.789,11.658,-30.640
1.212,-1.625,0.497,14.648,24.475,-44.556
1.057,-2.164,0.518,-12.146,46.448,25.146
0.824,-2.271,0.459,-35.400,76.050,136.047
0.579,-2.074,0.225,-0.793,109.863,249.634
0.313,-1.344,-0.130,51.025,136.719,359.558
0.173,-0.432,-0.482,93.933,139.832,437.744
0.136,0.277,-0.770,122.620,115.479,466.736
0.125,0.740,-0.897,116.455,68.787,470.093
0.170,0.997,-0.799,94.055,4.578,469.177
0.235,1.482,-0.496,95.520,-61.035,409.302
0.273,1.488,-0.154,109.314,-105.835,307.617
0.309,1.448,0.161,68.176,-115.051,232.117
0.343,1.404,0.348,40.588,-101.868,183.167
0.378,1.510,0.434,40.161,-80.505,155.640
0.400,1.688,0.454,37.659,-56.702,131.348
0.428,1.764,0.404,35.400,-33.508,94.788
0.456,1.719,0.317,33.020,-15.625,48.889
0.488,1.619,0.243,30.212,-8.362,8.057
0.536,1.524,0.212,29.175,-11.536,-20.447
0.592,1.450,0.237,23.010,-21.179,-40.466
0.648,1.372,0.302,12.268,-31.921,-56.274
0.691,1.287,0.375,0.977,-38.574,-70.129
0.728,1.198,0.426,-10.681,-37.964,-83.374
0.755,1.101,0.445,-18.799,-31.616,-95.520
0.771,1.010,0.439,-23.560,-21.973,-106.201
0.771,0.923,0.414,-26.917,-10.925,-115.051
0.778,0.854,0.362,-30.457,0.977,-123.352
0.768,0.749,0.284,-32.043,13.428,-132.324
0.737,0.666,0.226,-35.461,21.973,-139.648
0.743,0.549,0.159,-36.316,27.649,-146.606
0.748,0.417,0.113,-37.964,29.358,-151.978
0.755,0.272,0.096,-40.100,27.100,-154.358
0.770,0.162,0.091,-39.856,24.170,-151.611
0.790,0.094,0.076,-37.659,23.132,-143.921
0.806,0.051,0.043,-35.034,24.475,-134.949
0.825,0.031,0.002,-33.081,25.269,-126.099
0.850,0.008,-0.038,-31.799,22.949,-117.798
0.864,0.001,-0.059,-32.715,17.639,-109.802
0.885,-0.002,-0.072,-31.494,10.681,-101.990
0.919,-0.017,-0.067,-30.823,2.563,-95.154
0.936,0.003,-0.017,-34.119,-5.188,-87.952
0.952,0.021,0.024,-33.386,-10.925,-81.421
0.967,0.031,0.046,-30.823,-12.207,-77.332
0.980,0.020,0.065,-30.823,-12.268,-75.806
0.989,-0.008,0.088,-29.114,-13.916,-75.745
1.000,-0.037,0.118,-24.780,-14.893,-74.280
1.008,-0.071,0.141,-18.005,-13.916,-71.350
1.020,-0.105,0.150,-11.902,-10.376,-67.078
1.020,-0.112,0.157,-8.118,-5.737,-60.669
1.022,-0.097,0.157,-2.197,-2.258,-52.917
1.019,-0.047,0.149,1.587,0.183,-44.434
1.014,-0.003,0.129,3.906,2.686,-38.635
1.007,0.027,0.097,3.174,4.333,-36.011
1.003,0.037,0.072,0.916,4.150,-34.790
1.001,0.037,0.070,-1.160,1.831,-34.058
1.000,0.025,0.080,-1.770,-0.549,-33.203
1.001,0.024,0.094,-2.319,-1.648,-31.372
1.002,0.024,0.113,-2.319,-2.136,-28.992
1.004,0.016,0.124,-1.709,-1.648,-27.344
1.002,0.011,0.128,-1.465,-0.122,-25.574
1.001,0.019,0.120,-1.404,1.831,-23.315
0.995,0.044,0.111,-1.221,4.456,-20.386
0.991,0.054,0.091,1.099,6.531,-19.531
0.983,0.063,0.071,2.319,7.385,-19.775
0.977,0.070,0.059,2.563,6.531,-20.142
0.973,0.073,0.055,3.052,4.456,-20.752
0.980,0.061,0.061,1.953,1.709,-22.034
0.980,0.043,0.077,-0.732,-0.061,-23.132
0.984,0.020,0.079,-2.197,-0.305,-23.437
0.982,0.014,0.080,-2.808,0.366,-22.522
0.986,0.015,0.075,-3.052,0.427,-21.118
0.990,0.005,0.073,-3.723,-0.488,-20.935
0.991,-0.009,0.076,-5.188,-1.404,-21.240
0.994,-0.017,0.080,-5.066,-2.136,-21.301
1.000,-0.029,0.084,-3.174,-2.869,-20.691
1.000,-0.040,0.093,-2.808,-2.747,-19.958
1.003,-0.050,0.098,-2.686,-2.075,-19.104
1.004,-0.065,0.099,-1.099,-1.526,-17.883
1.002,-0.065,0.104,-0.916,-1.099,-15.930
1.006,-0.065,0.106,0.671,-0.977,-14.343
1.005,-0.068,0.114,1.465,-1.282,-13.245
1.002,-0.074,0.120,1.404,-1.038,-12.268
1.000,-0.074,0.115,1.831,0.000,-10.620
0.999,-0.069,0.099,2.075,1.282,-8.545
0.997,-0.060,0.089,0.061,1.587,-6.470
0.995,-0.052,0.091,-1.770,0.732,-4.822
0.992,-0.044,0.096,-1.770,-0.122,-3.906
0.995,-0.036,0.104,-1.099,-0.549,-3.540
0.997,-0.032,0.112,-0.305,-0.366,-3.906
0.997,-0.036,0.117,0.732,-0.122,-4.700
0.999,-0.040,0.117,1.648,0.305,-5.188
1.001,-0.048,0.115,2.625,0.610,-5.310
1.000,-0.049,0.111,1.953,1.404,-4.761
1.000,-0.048,0.103,0.916,2.075,-3.601
1.000,-0.046,0.100,1.038,1.770,-2.441
1.002,-0.044,0.107,0.122,0.610,-1.770
1.003,-0.047,0.121,-0.854,-0.183,-1.526
1.000,-0.044,0.129,-0.732,0.610,-1.221
0.999,-0.042,0.117,0.916,2.502,-1.099
0.994,-0.033,0.102,1.648,4.211,-0.977
0.993,-0.025,0.096,2.441,4.089,-1.038
0.992,-0.024,0.098,2.747,3.052,-1.282
0.994,-0.035,0.103,2.136,2.014,-1.770
0.991,-0.035,0.110,0.244,2.319,-1.831
0.992,-0.035,0.105,0.244,3.113,-1.404
0.992,-0.034,0.096,0.244,3.845,-1.160
0.991,-0.034,0.093,-0.671,3.601,-1.160
0.990,-0.031,0.094,-0.732,2.808,-1.160
0.991,-0.030,0.095,0.000,2.502,-1.465
0.992,-0.035,0.097,0.916,2.258,-2.136
0.996,-0.049,0.099,2.014,1.892,-2.869
0.995,-0.060,0.102,1.709,2.014,-2.808
0.997,-0.068,0.099,1.648,2.686,-1.953
0.994,-0.052,0.102,1.587,3.174,-0.854
0.996,-0.035,0.101,2.258,2.808,0.183
0.994,-0.026,0.096,1.892,2.563,-0.122
0.993,-0.030,0.096,-0.244,2.319,-1.038
0.993,-0.042,0.101,-0.854,1.526,-1.648

1.102,-0.835,0.291,38.757,25.208,-0.977
1.105,-1.066,0.334,57.434,36.072,7.874
1.050,-1.373,0.337,73.608,49.438,39.673
0.950,-1.548,0.350,81.543,63.049,102.722
0.842,-1.536,0.308,106.689,76.904,170.410
0.682,-1.312,0.215,143.372,87.585,238.220
0.551,-0.887,0.044,155.518,95.093,298.584
0.480,-0.506,-0.217,148.621,97.351,340.210
0.391,-0.177,-0.470,122.192,87.097,362.366
0.309,0.159,-0.638,92.224,62.256,373.291
0.243,0.458,-0.708,79.590,27.100,377.319
0.168,0.700,-0.667,69.519,-13.855,384.460
0.164,0.951,-0.510,56.763,-56.580,398.560
0.229,1.480,-0.262,59.387,-96.069,373.230
0.293,1.569,-0.003,76.477,-121.521,294.800
0.334,1.627,0.204,50.476,-125.732,227.295
0.396,1.594,0.329,16.724,-112.366,172.485
0.432,1.580,0.399,6.470,-95.276,131.592
0.470,1.630,0.442,4.456,-79.224,101.990
0.504,1.642,0.476,9.705,-65.002,69.092
0.543,1.589,0.501,15.991,-52.612,32.654
0.591,1.504,0.510,20.935,-40.955,0.305
0.636,1.449,0.506,22.522,-30.090,-22.888
0.681,1.375,0.481,20.447,-21.484,-41.199
0.705,1.296,0.449,8.789,-15.015,-57.312
0.714,1.215,0.414,-4.333,-9.399,-70.923
0.726,1.121,0.372,-12.268,-4.395,-82.642
0.725,1.032,0.336,-19.958,0.000,-92.163
0.722,0.929,0.295,-25.818,4.883,-101.624
0.717,0.834,0.249,-30.457,10.559,-109.863
0.714,0.749,0.197,-33.447,15.259,-115.967
0.705,0.655,0.158,-35.461,18.372,-120.972
0.704,0.544,0.120,-37.781,20.447,-126.282
0.718,0.434,0.082,-39.917,20.813,-129.456
0.725,0.339,0.047,-39.795,18.921,-129.578
0.739,0.269,0.009,-36.865,17.090,-127.258
0.766,0.218,-0.029,-34.180,15.198,-122.559
0.785,0.214,-0.042,-33.997,12.756,-115.173
0.803,0.222,-0.056,-32.471,8.301,-107.788
0.827,0.229,-0.062,-33.142,3.052,-102.417
0.853,0.215,-0.055,-36.316,-3.723,-100.220
0.874,0.189,-0.032,-39.001,-11.597,-99.121
0.895,0.166,0.004,-39.246,-18.250,-97.229
0.915,0.179,0.045,-37.048,-22.278,-94.177
0.930,0.203,0.079,-31.250,-24.048,-91.736
0.937,0.216,0.104,-25.452,-23.682,-92.468
0.948,0.185,0.116,-22.522,-22.095,-95.825
0.956,0.131,0.143,-21.790,-20.386,-99.121
0.966,0.075,0.180,-19.043,-19.592,-99.976
0.980,0.017,0.209,-12.451,-18.127,-98.450
0.992,-0.019,0.222,-8.545,-14.648,-94.238
1.000,-0.031,0.215,-5.371,-9.644,-87.524
1.005,-0.028,0.192,-2.319,-4.822,-79.712
1.004,0.003,0.172,-1.526,-1.038,-71.045
1.001,0.037,0.145,-1.709,1.648,-63.599
0.999,0.051,0.117,-2.869,3.540,-58.899
0.994,0.057,0.112,-6.958,2.686,-55.969
0.997,0.045,0.121,-8.484,-0.061,-53.711
0.999,0.034,0.145,-8.972,-1.892,-50.964
0.996,0.033,0.163,-9.705,-2.075,-48.035
0.992,0.030,0.159,-8.179,-0.061,-45.776
0.988,0.034,0.141,-6.653,3.540,-43.640
0.981,0.038,0.121,-5.188,6.409,-41.809
0.974,0.040,0.097,-3.174,7.874,-41.138
0.971,0.022,0.071,-1.404,7.935,-41.199
0.970,0.012,0.060,-2.197,6.592,-40.527
0.973,-0.003,0.061,-2.014,4.028,-38.879
0.972,-0.015,0.068,-0.427,1.831,-36.804
0.978,-0.022,0.070,-0.732,0.732,-33.997
0.981,-0.026,0.077,-1.892,0.366,-31.250
0.983,-0.020,0.088,-2.319,-0.427,-28.381
0.985,-0.007,0.097,-1.953,-1.099,-25.757
0.993,-0.005,0.100,-1.526,-1.160,-24.902
0.994,-0.010,0.107,-2.563,-0.977,-24.963
1.001,-0.011,0.123,-3.357,-1.221,-24.841
1.005,-0.027,0.144,-1.465,-1.770,-25.085
1.007,-0.040,0.161,0.122,-1.282,-25.574
1.008,-0.053,0.161,2.075,0.549,-25.452
1.007,-0.062,0.147,4.639,3.357,-24.536
1.010,-0.075,0.128,5.859,5.127,-23.010
1.005,-0.083,0.114,5.127,5.005,-20.691
1.001,-0.068,0.112,2.380,4.028,-17.273
1.001,-0.054,0.109,0.793,2.319,-14.282
0.999,-0.036,0.118,-1.648,1.343,-12.024
0.993,-0.018,0.127,-4.761,0.916,-10.620
0.989,-0.011,0.127,-5.249,1.038,-10.925
0.989,-0.007,0.127,-6.104,1.465,-11.780
0.992,-0.018,0.130,-5.798,1.465,-13.672
0.993,-0.044,0.132,-4.089,1.831,-15.625
0.990,-0.056,0.134,-2.930,3.296,-15.991
0.992,-0.068,0.121,0.000,5.188,-15.564
0.995,-0.072,0.112,1.526,6.653,-14.526
0.995,-0.071,0.106,1.221,6.165,-13.733
0.997,-0.075,0.102,1.770,5.188,-12.878
0.998,-0.079,0.103,0.732,3.967,-12.268
1.000,-0.091,0.104,-0.244,2.808,-11.658
0.999,-0.098,0.109,-1.648,1.831,-10.376
0.999,-0.102,0.108,-2.625,1.404,-8.789
0.996,-0.101,0.104,-3.784,2.197,-6.836
0.992,-0.093,0.101,-3.662,2.625,-5.066
0.994,-0.092,0.103,-2.380,2.075,-4.150
0.990,-0.083,0.110,-2.319,1.831,-3.296
0.991,-0.076,0.111,-1.221,2.319,-2.869
0.992,-0.071,0.107,0.366,3.052,-2.869
0.995,-0.073,0.105,0.244,3.052,-2.930
0.989,-0.075,0.102,-0.183,2.869,-3.174
0.986,-0.075,0.095,-0.061,2.808,-2.686
0.987,-0.071,0.093,-0.488,2.258,-2.258
0.985,-0.060,0.099,-1.465,1.038,-1.526
0.988,-0.058,0.105,-0.854,0.000,-1.465
0.986,-0.053,0.114,-1.587,-0.061,-1.648
0.988,-0.040,0.120,-1.770,0.061,-1.709
0.992,-0.041,0.121,-0.244,0.488,-2.502
0.994,-0.047,0.126,-0.793,0.549,-4.089
0.996,-0.071,0.124,-0.732,0.732,-5.676
0.997,-0.085,0.119,-1.709,1.404,-5.737
0.993,-0.090,0.114,-2.441,2.075,-4.639
0.995,-0.098,0.106,-1.465,2.319,-3.601
0.996,-0.107,0.104,-1.892,2.075,-2.441

1.121,-0.798,0.348,14.221,33.447,-5.066
1.148,-1.098,0.377,32.959,52.856,-8.423
1.067,-1.560,0.426,47.913,71.777,13.977
0.992,-1.776,0.444,59.265,90.454,88.501
0.847,-1.782,0.350,94.177,104.614,174.805
0.696,-1.440,0.181,108.459,111.633,261.169
0.542,-0.904,-0.037,96.313,112.305,331.726
0.460,-0.393,-0.309,79.102,107.300,376.587
0.387,0.057,-0.551,51.270,88.928,398.254
0.357,0.421,-0.680,22.522,54.993,400.269
0.362,0.574,-0.643,15.442,9.827,394.043
0.385,0.684,-0.433,20.630,-38.269,375.916
0.434,0.763,-0.132,29.968,-72.693,334.839
0.426,0.777,0.124,38.757,-79.712,282.715
0.420,0.807,0.253,45.044,-64.331,246.887
0.410,0.928,0.249,49.683,-41.321,231.812
0.408,1.097,0.160,45.654,-22.949,224.609
0.405,1.319,0.054,33.813,-12.329,213.440
0.392,1.467,-0.040,27.222,-10.132,189.209
0.392,1.565,-0.103,17.578,-15.564,158.447
0.407,1.612,-0.105,5.249,-29.663,125.549
0.427,1.635,0.006,-6.653,-50.232,92.468
0.455,1.653,0.193,-10.498,-69.946,61.584
0.491,1.690,0.369,-2.319,-77.820,34.119
0.525,1.699,0.473,5.859,-69.702,6.165
0.568,1.630,0.498,8.972,-50.781,-24.902
0.590,1.506,0.463,5.127,-29.602,-55.969
0.610,1.366,0.388,0.488,-12.024,-81.177
0.619,1.235,0.316,-3.113,-2.014,-99.976
0.619,1.097,0.263,-7.935,1.953,-115.479
0.628,0.967,0.209,-14.099,4.211,-127.319
0.624,0.849,0.161,-19.775,5.554,-135.132
0.633,0.730,0.106,-24.109,5.310,-141.113
0.643,0.635,0.066,-29.602,3.235,-144.470
0.670,0.541,0.040,-31.799,-0.366,-145.569
0.694,0.453,0.055,-35.156,-3.967,-144.775
0.718,0.367,0.085,-38.513,-5.188,-142.395
0.739,0.299,0.077,-35.767,-0.977,-138.428
0.760,0.257,0.022,-32.898,5.432,-132.141
0.787,0.228,-0.032,-30.945,8.423,-126.343
0.812,0.200,-0.056,-29.724,4.517,-121.155
0.836,0.180,-0.040,-29.785,-3.052,-115.845
0.854,0.180,-0.005,-29.053,-10.681,-110.657
0.876,0.177,0.018,-25.696,-15.015,-106.323
0.899,0.167,0.026,-23.743,-16.174,-102.844
0.921,0.126,0.052,-22.217,-17.700,-100.586
0.935,0.055,0.079,-18.616,-19.409,-99.121
0.952,0.020,0.108,-16.846,-19.287,-94.543
0.970,0.026,0.138,-13.245,-17.761,-86.365
0.984,0.038,0.161,-5.432,-15.442,-78.369
0.998,0.059,0.174,-1.465,-10.986,-72.388
1.003,0.049,0.171,1.709,-6.287,-68.665
1.007,0.040,0.168,3.235,-2.747,-65.125
1.008,0.058,0.170,3.601,-1.038,-59.387
1.006,0.069,0.157,7.019,0.488,-53.894
1.006,0.085,0.142,6.409,2.502,-49.622
1.001,0.099,0.129,4.028,3.357,-46.082
1.000,0.118,0.127,2.869,2.319,-42.603
0.995,0.151,0.134,1.587,1.587,-39.490
0.995,0.157,0.131,1.831,1.648,-38.757
0.990,0.143,0.128,0.488,2.258,-39.429
0.982,0.134,0.127,-1.282,3.174,-39.246
0.980,0.127,0.117,-0.183,3.906,-37.781
0.977,0.126,0.113,-0.183,4.822,-36.194
0.975,0.121,0.112,-0.732,5.615,-34.851
0.969,0.117,0.105,0.854,6.470,-33.936
0.969,0.125,0.095,2.197,6.897,-32.349
0.972,0.132,0.088,3.540,7.080,-31.311
0.977,0.130,0.088,3.113,6.287,-31.372
0.983,0.113,0.090,2.502,5.737,-32.227
0.981,0.090,0.087,2.686,5.493,-32.471
0.984,0.089,0.088,1.709,5.676,-30.884
0.988,0.099,0.090,0.732,5.188,-28.870
0.989,0.096,0.091,0.793,4.639,-28.687
0.988,0.089,0.091,-0.732,4.517,-29.358
0.993,0.083,0.099,-1.709,3.967,-29.480
0.994,0.074,0.109,-0.488,3.174,-29.663
0.996,0.051,0.106,0.305,3.906,-30.396
0.993,0.032,0.097,-0.061,6.104,-30.640
0.995,0.005,0.081,0.916,7.324,-29.846
0.995,0.008,0.079,0.427,7.080,-27.466
0.996,0.013,0.081,0.916,5.493,-24.841
0.997,0.010,0.078,1.526,4.517,-23.804
0.999,-0.003,0.073,0.122,4.272,-23.193
0.995,-0.005,0.081,-0.916,3.784,-21.606
0.996,-0.000,0.086,0.244,2.869,-19.470
0.995,0.004,0.089,1.099,2.930,-17.578
0.995,0.002,0.089,0.183,3.784,-16.785
0.994,-0.005,0.085,-0.244,4.211,-16.296
0.995,-0.008,0.083,0.000,3.845,-15.503
0.993,-0.001,0.088,0.305,3.540,-14.038
0.993,0.011,0.090,1.465,3.540,-12.817
0.997,0.028,0.089,1.831,3.784,-12.695
0.995,0.022,0.083,1.709,4.211,-13.733
0.992,0.011,0.083,0.549,3.967,-14.954
0.997,-0.003,0.082,0.061,3.540,-15.747
0.997,-0.010,0.087,0.061,2.380,-15.381
1.000,-0.028,0.087,-0.549,1.709,-14.648
1.001,-0.034,0.089,-2.502,2.197,-13.184
0.999,-0.038,0.085,-2.319,2.747,-11.353
1.000,-0.039,0.084,-1.587,2.869,-9.583
1.001,-0.040,0.087,-2.075,2.869,-8.118
1.000,-0.042,0.088,-2.380,2.991,-6.897
0.999,-0.043,0.075,-2.869,4.517,-5.615
0.993,-0.036,0.067,-3.113,5.493,-4.272
0.992,-0.024,0.063,-2.686,4.639,-3.113
0.992,-0.017,0.065,-1.404,2.991,-2.686
0.993,-0.014,0.076,-1.709,1.587,-2.869
0.995,-0.017,0.090,-2.502,1.282,-3.235
0.995,-0.025,0.094,-1.892,1.587,-3.479
1.000,-0.024,0.097,-1.587,2.075,-3.174
1.000,-0.021,0.099,-0.977,2.258,-2.930
1.000,-0.012,0.100,0.122,2.319,-2.991
1.001,-0.003,0.099,0.671,2.197,-3.174
1.002,-0.001,0.094,1.282,2.258,-4.333
1.005,-0.019,0.090,1.038,2.258,-6.042
1.001,-0.028,0.096,-0.549,1.587,-6.470
1.001,-0.034,0.103,0.244,0.916,-5.859
1.001,-0.036,0.106,1.404,1.099,-4.761

1.192,-0.786,0.359,1.953,13.000,5.249
1.195,-1.107,0.453,5.127,21.240,-4.150
1.133,-1.671,0.486,-7.446,35.339,17.761
0.992,-1.937,0.498,-42.664,56.458,98.938
0.788,-2.014,0.360,-34.790,86.975,194.946
0.576,-1.911,0.066,-11.230,118.225,291.565
0.367,-1.601,-0.247,-12.451,134.033,372.925
0.073,-1.109,-0.540,-7.874,127.686,439.941
-0.079,-0.477,-0.784,4.822,104.553,491.577
-0.200,0.254,-0.870,24.048,66.162,519.653
-0.249,0.789,-0.890,56.641,19.043,527.893
-0.221,1.071,-0.761,68.054,-31.921,538.086
-0.101,1.828,-0.445,77.393,-85.571,497.681
-0.013,1.985,-0.125,109.680,-124.817,385.803
0.044,2.077,0.204,68.909,-130.737,286.499
0.114,1.973,0.394,45.532,-113.831,206.421
0.183,1.984,0.489,48.157,-87.341,152.954
0.216,1.990,0.477,49.805,-57.373,106.995
0.252,1.849,0.379,50.354,-30.518,56.702
0.284,1.637,0.273,44.250,-16.602,15.076
0.341,1.483,0.239,40.100,-20.691,-6.775
0.405,1.446,0.300,34.546,-36.011,-14.099
0.477,1.467,0.400,26.245,-48.584,-16.418
0.549,1.458,0.479,14.343,-52.002,-21.790
0.568,1.478,0.511,0.854,-45.166,-30.457
0.587,1.427,0.478,-5.615,-30.151,-42.664
0.579,1.424,0.433,-15.686,-16.724,-54.016
0.595,1.380,0.366,-17.700,-3.235,-70.251
0.579,1.295,0.305,-15.198,7.812,-91.309
0.564,1.170,0.235,-11.230,16.602,-112.793
0.560,1.040,0.188,-14.221,21.118,-130.005
0.560,0.916,0.156,-19.897,23.865,-143.799
0.566,0.779,0.110,-25.146,26.855,-154.541
0.572,0.638,0.064,-31.433,28.564,-161.682
0.592,0.498,0.036,-36.438,25.818,-164.856
0.618,0.379,0.026,-38.208,20.081,-163.391
0.649,0.308,0.024,-37.659,14.343,-157.593
0.681,0.280,0.020,-32.288,9.705,-149.841
0.714,0.278,0.005,-26.123,6.287,-141.296
0.742,0.290,-0.007,-23.743,2.380,-134.583
0.771,0.292,-0.012,-22.400,-1.587,-130.676
0.797,0.303,0.000,-22.827,-5.920,-128.113
0.828,0.289,0.026,-22.461,-10.681,-126.648
0.857,0.240,0.063,-23.010,-15.381,-126.892
0.884,0.176,0.108,-24.780,-18.799,-126.526
0.913,0.134,0.151,-24.048,-19.348,-123.291
0.928,0.109,0.177,-18.799,-17.273,-117.615
0.936,0.113,0.180,-13.367,-11.169,-110.596
0.944,0.133,0.159,-8.728,-4.333,-103.882
0.942,0.128,0.126,-4.028,-0.549,-100.220
0.941,0.128,0.109,-2.869,0.671,-97.961
0.944,0.123,0.116,-0.366,-0.610,-95.581
0.949,0.115,0.137,3.540,-2.563,-93.079
0.962,0.095,0.156,5.005,-3.174,-90.820
0.969,0.080,0.164,4.700,-2.136,-87.769
0.976,0.066,0.160,5.920,-0.122,-83.435
0.990,0.050,0.146,7.629,1.831,-78.552
0.986,0.056,0.138,6.348,3.845,-72.449
0.989,0.059,0.120,6.409,5.432,-66.650
0.993,0.042,0.098,5.066,6.104,-62.012
0.993,0.026,0.099,0.427,5.249,-57.983
0.989,0.021,0.100,-1.099,4.211,-53.162
0.987,0.033,0.099,0.305,3.784,-47.546
0.979,0.064,0.100,1.099,3.784,-42.664
0.972,0.088,0.094,3.052,4.822,-40.161
0.967,0.105,0.089,3.662,5.493,-39.246
0.962,0.101,0.087,4.028,5.493,-39.551
0.962,0.081,0.081,5.371,5.310,-41.016
0.961,0.063,0.077,6.287,5.127,-41.443
0.964,0.057,0.073,7.263,4.211,-40.771
0.969,0.048,0.072,7.629,2.686,-39.673
0.978,0.040,0.080,6.409,0.977,-39.124
0.981,0.034,0.086,5.737,-0.061,-38.391
0.988,0.035,0.091,5.798,-0.671,-37.598
0.998,0.028,0.102,5.371,-1.282,-36.804
1.001,0.017,0.117,3.296,-1.831,-36.072
1.002,-0.000,0.131,2.075,-1.892,-35.767
1.007,-0.013,0.136,2.441,-1.038,-35.156
1.006,-0.025,0.136,3.540,0.183,-33.875
1.003,-0.023,0.137,4.395,1.648,-32.104
1.002,-0.029,0.138,5.371,2.441,-30.884
1.004,-0.039,0.136,6.226,2.930,-30.151
1.002,-0.061,0.128,5.249,3.784,-29.419
1.000,-0.074,0.117,3.418,5.493,-27.771
0.994,-0.076,0.101,3.296,6.409,-24.963
0.993,-0.064,0.091,2.869,6.287,-22.095
0.989,-0.064,0.084,2.625,5.554,-20.020
0.988,-0.064,0.081,0.977,4.272,-18.738
0.987,-0.062,0.087,0.305,2.686,-17.517
0.987,-0.055,0.099,0.977,1.038,-16.479
0.989,-0.047,0.107,3.418,0.061,-16.235
0.992,-0.050,0.105,4.700,0.549,-16.357
0.990,-0.061,0.093,4.272,1.770,-16.663
0.990,-0.068,0.081,3.540,2.441,-16.174
0.993,-0.074,0.082,3.662,1.282,-14.771
0.998,-0.089,0.097,3.723,-0.671,-13.672
1.001,-0.107,0.113,2.380,-1.831,-12.268
1.001,-0.107,0.128,-0.122,-1.709,-9.583
1.003,-0.107,0.133,0.427,-1.038,-6.775
1.003,-0.100,0.131,1.038,0.061,-4.578
1.001,-0.093,0.122,1.343,1.099,-3.052
0.998,-0.078,0.111,1.282,1.831,-1.953
0.996,-0.058,0.110,1.038,1.648,-1.160
0.995,-0.047,0.115,1.892,0.549,-1.465
0.995,-0.044,0.123,1.526,-0.183,-2.258
0.990,-0.045,0.124,0.916,0.366,-3.113
0.994,-0.050,0.119,1.099,1.404,-3.845
0.992,-0.053,0.115,0.854,1.587,-4.211
0.994,-0.061,0.117,1.160,1.282,-4.272
0.996,-0.073,0.122,1.160,1.038,-4.395
0.992,-0.076,0.124,1.099,1.221,-3.845
0.992,-0.074,0.118,1.892,1.953,-2.991
0.998,-0.077,0.109,2.502,2.319,-2.258
0.992,-0.078,0.106,1.160,2.441,-1.770
0.987,-0.052,0.107,-0.488,2.747,-0.854
0.989,-0.031,0.103,1.831,2.319,-0.427
0.991,-0.021,0.109,2.258,1.587,-1.282
0.995,-0.041,0.120,1.160,0.427,-3.601
0.997,-0.067,0.130,0.305,0.061,-5.554

1.167,-0.929,0.369,-9.644,16.968,3.662
1.137,-1.253,0.395,-31.067,27.283,11.169
1.052,-1.759,0.389,-55.969,41.077,62.683
0.916,-1.917,0.408,-77.698,58.533,159.241
0.728,-1.865,0.325,-51.819,79.285,248.230
0.513,-1.515,0.140,-17.944,103.088,329.529
0.345,-1.046,-0.122,3.906,121.887,392.639
0.230,-0.715,-0.420,28.809,123.779,428.528
0.123,-0.427,-0.597,40.955,102.234,444.641
0.005,-0.222,-0.701,49.805,66.895,449.524
-0.116,0.013,-0.722,54.993,27.954,452.087
-0.169,0.317,-0.670,60.059,-9.888,455.078
-0.270,0.590,-0.567,71.411,-47.180,461.121
-0.322,0.853,-0.416,62.134,-78.735,487.366
-0.289,1.419,-0.192,46.570,-103.394,500.977
-0.239,1.813,-0.014,71.350,-118.042,431.885
-0.220,1.955,0.150,66.956,-120.422,349.915
-0.132,2.070,0.296,32.227,-111.694,282.837
-0.099,1.973,0.421,29.968,-96.924,217.224
-0.082,1.858,0.534,35.583,-80.994,162.598
-0.054,1.858,0.618,45.532,-67.139,126.404
-0.002,1.947,0.661,61.584,-54.626,100.586
0.085,2.043,0.672,66.772,-43.274,74.768
0.079,2.084,0.687,57.800,-33.203,46.021
0.169,1.993,0.650,41.748,-20.996,14.526
0.174,1.904,0.623,21.362,-9.705,-12.390
0.232,1.803,0.552,9.583,1.404,-34.119
0.266,1.682,0.486,5.615,11.902,-54.810
0.300,1.549,0.422,-0.854,21.484,-73.730
0.327,1.426,0.370,-6.042,29.297,-88.928
0.351,1.316,0.323,-8.972,36.255,-101.624
0.368,1.195,0.264,-10.864,43.213,-113.403
0.384,1.068,0.206,-14.038,50.171,-125.000
0.398,0.935,0.154,-14.648,54.260,-134.521
0.418,0.824,0.112,-14.221,55.176,-140.503
0.435,0.746,0.078,-13.428,54.688,-142.761
0.455,0.683,0.040,-11.658,53.406,-143.311
0.475,0.636,0.001,-10.864,50.476,-142.944
0.500,0.611,-0.020,-10.925,44.739,-141.479
0.523,0.576,-0.039,-10.254,37.659,-139.893
0.554,0.546,-0.052,-12.512,30.334,-138.855
0.586,0.510,-0.055,-13.916,22.522,-137.390
0.628,0.475,-0.042,-14.648,13.794,-134.766
0.669,0.455,-0.012,-18.188,4.639,-130.859
0.704,0.439,0.022,-20.630,-2.319,-126.404
0.737,0.426,0.048,-21.057,-6.287,-122.070
0.762,0.418,0.066,-19.714,-8.362,-117.615
0.785,0.420,0.093,-17.517,-10.498,-113.342
0.800,0.429,0.130,-15.381,-13.611,-109.802
0.814,0.431,0.159,-13.062,-15.015,-107.422
0.829,0.426,0.182,-11.169,-13.550,-106.079
0.844,0.396,0.203,-9.033,-11.475,-105.347
0.854,0.357,0.226,-6.958,-9.094,-104.187
0.868,0.330,0.237,-5.371,-4.761,-100.830
0.878,0.340,0.242,-2.441,0.732,-95.276
0.888,0.348,0.228,2.808,7.019,-89.783
0.896,0.354,0.200,4.211,13.428,-86.182
0.894,0.341,0.164,3.357,18.616,-83.740
0.891,0.323,0.119,2.686,21.606,-81.116
0.892,0.312,0.082,4.211,22.400,-77.698
0.888,0.318,0.065,6.592,19.836,-73.669
0.891,0.331,0.067,6.897,16.174,-69.580
0.892,0.344,0.078,4.333,13.428,-66.711
0.892,0.340,0.078,1.953,12.512,-65.308
0.894,0.318,0.071,0.000,11.963,-64.758
0.897,0.295,0.066,-2.136,10.132,-63.843
0.899,0.279,0.061,-2.502,8.545,-62.073
0.896,0.284,0.053,-2.319,7.812,-59.265
0.900,0.297,0.042,-0.977,6.775,-57.007
0.908,0.295,0.039,-0.671,4.944,-56.396
0.916,0.262,0.055,-2.014,2.808,-57.251
0.923,0.239,0.087,-3.784,0.732,-57.312
0.932,0.235,0.109,-2.808,0.244,-55.481
0.941,0.247,0.116,0.122,2.136,-53.406
0.952,0.253,0.109,2.563,4.883,-52.734
0.954,0.245,0.100,3.662,6.775,-53.772
0.959,0.234,0.091,3.845,7.751,-54.993
0.963,0.218,0.083,4.089,7.202,-55.786
0.964,0.205,0.085,2.502,6.165,-55.786
0.960,0.205,0.091,0.854,5.066,-54.932
0.961,0.206,0.083,1.099,4.517,-53.955
0.960,0.195,0.073,0.183,4.517,-54.077
0.960,0.180,0.074,-2.380,3.662,-54.565
0.959,0.156,0.088,-2.808,1.648,-54.810
0.966,0.132,0.108,-2.380,-0.061,-54.565
0.975,0.105,0.127,-1.526,-0.732,-54.138
0.984,0.069,0.140,0.732,-0.488,-53.772
0.992,0.039,0.148,3.845,0.671,-52.368
0.999,0.029,0.148,6.226,3.723,-48.645
0.994,0.069,0.152,9.705,8.118,-43.274
0.993,0.094,0.130,17.944,13.611,-40.161
0.991,0.114,0.104,21.179,18.433,-40.527
0.989,0.099,0.076,22.461,20.142,-43.091
0.990,0.071,0.062,23.621,19.348,-45.105
0.990,0.045,0.066,23.254,17.273,-45.532
0.996,0.016,0.072,22.949,15.198,-44.922
1.000,-0.008,0.079,21.179,13.611,-43.030
1.000,-0.017,0.086,18.188,12.939,-39.917
0.998,-0.014,0.080,15.991,13.000,-36.194
1.001,-0.020,0.064,12.939,13.000,-33.264
1.001,-0.023,0.058,7.690,12.390,-30.396
1.000,-0.033,0.057,5.798,11.230,-28.015
1.000,-0.031,0.058,5.554,10.193,-25.330
1.000,-0.023,0.061,5.676,9.521,-22.888
0.997,-0.000,0.071,6.714,9.277,-21.118
0.998,0.031,0.077,9.583,9.338,-20.203
0.993,0.052,0.076,11.597,10.132,-21.118
0.988,0.064,0.070,11.292,11.658,-23.560
0.985,0.053,0.052,11.841,13.000,-26.489
0.984,0.029,0.035,12.146,12.817,-28.992
0.980,0.008,0.026,10.193,11.902,-30.090
0.986,-0.012,0.032,8.850,9.277,-30.151
0.991,-0.030,0.053,7.507,5.859,-29.358
0.994,-0.048,0.067,6.775,4.883,-28.259
0.997,-0.064,0.062,7.141,6.165,-26.794
0.998,-0.065,0.050,7.935,7.751,-24.414
1.000,-0.072,0.042,10.010,8.057,-22.644
1.000,-0.082,0.041,10.864,7.080,-21.301
1.001,-0.090,0.043,11.047,6.226,-20.020

1.184,-1.109,0.325,-6.958,11.169,-24.109
1.093,-1.584,0.277,-20.081,26.184,-10.254
1.001,-1.947,0.223,-38.391,44.434,75.684
0.854,-1.995,0.134,-27.588,56.396,178.589
0.665,-1.846,0.015,-1.282,66.772,267.090
0.456,-1.439,-0.143,17.273,75.073,340.515
0.279,-0.843,-0.352,37.476,74.829,400.940
0.158,-0.182,-0.536,61.890,63.110,439.392
0.137,0.339,-0.685,89.539,40.039,450.256
0.113,0.582,-0.697,96.680,2.014,450.562
0.142,0.831,-0.521,80.811,-45.593,448.425
0.210,1.090,-0.222,79.224,-90.576,406.860
0.217,1.173,0.077,76.111,-110.779,331.665
0.231,1.257,0.248,52.551,-100.342,279.907
0.265,1.366,0.301,44.617,-77.454,246.887
0.297,1.510,0.356,53.589,-62.012,216.797
0.338,1.663,0.435,61.340,-52.002,184.448
0.380,1.742,0.499,65.308,-39.063,144.531
0.417,1.735,0.530,67.200,-22.217,100.098
0.445,1.714,0.529,70.190,-6.226,60.974
0.491,1.727,0.521,74.280,3.296,31.860
0.541,1.751,0.532,72.449,6.836,7.446
0.584,1.732,0.547,62.866,8.972,-16.174
0.610,1.665,0.528,47.241,14.771,-40.283
0.616,1.563,0.463,29.663,24.353,-62.073
0.583,1.458,0.382,14.709,32.349,-79.834
0.639,1.352,0.269,3.235,37.781,-94.849
0.612,1.208,0.228,-8.789,38.086,-111.084
0.594,1.062,0.231,-22.766,34.363,-123.169
0.603,0.894,0.208,-27.527,35.706,-134.583
0.596,0.739,0.166,-33.875,40.222,-144.226
0.606,0.599,0.096,-36.011,45.227,-150.208
0.619,0.474,0.023,-35.522,47.180,-152.283
0.640,0.347,-0.035,-36.499,44.617,-151.428
0.666,0.235,-0.068,-39.917,39.307,-147.766
0.701,0.141,-0.092,-43.213,33.081,-140.686
0.739,0.087,-0.111,-43.213,26.855,-130.310
0.774,0.062,-0.139,-40.039,21.423,-118.713
0.809,0.070,-0.162,-36.926,15.869,-107.056
0.845,0.103,-0.157,-33.386,6.897,-97.046
0.876,0.141,-0.121,-27.832,-2.441,-89.844
0.906,0.168,-0.064,-22.522,-10.254,-85.449
0.930,0.159,-0.004,-18.921,-15.869,-83.923
0.952,0.139,0.053,-17.639,-17.761,-83.313
0.963,0.128,0.101,-14.282,-15.869,-81.299
0.972,0.134,0.130,-7.812,-11.658,-77.942
0.983,0.149,0.135,-2.869,-6.592,-75.073
0.985,0.182,0.130,-0.305,-1.831,-72.449
0.978,0.198,0.106,3.784,2.625,-71.228
0.973,0.202,0.069,7.080,5.981,-71.777
0.968,0.189,0.047,7.324,5.249,-72.449
0.967,0.175,0.046,5.981,2.380,-72.021
0.967,0.170,0.051,5.005,-0.427,-69.946
0.967,0.165,0.055,4.272,-2.075,-67.444
0.969,0.160,0.070,2.930,-3.723,-65.857
0.985,0.142,0.107,1.404,-6.714,-64.209
0.993,0.113,0.154,-0.610,-8.362,-62.683
0.996,0.094,0.178,-1.892,-5.493,-60.303
0.995,0.102,0.170,-1.343,0.305,-56.030
0.994,0.112,0.127,0.549,7.080,-52.368
0.985,0.116,0.072,-0.122,11.719,-50.049
0.973,0.118,0.031,-1.648,12.207,-48.828
0.965,0.123,0.011,-2.136,9.888,-47.913
0.963,0.121,0.015,-2.075,5.676,-47.424
0.965,0.101,0.032,-2.197,1.709,-47.791
0.970,0.068,0.054,-3.601,-0.549,-48.218
0.976,0.032,0.070,-4.761,-1.160,-47.546
0.983,-0.001,0.070,-5.981,-0.671,-45.288
0.984,-0.008,0.065,-8.850,0.732,-41.138
0.981,0.002,0.049,-8.728,2.747,-36.499
0.983,0.020,0.019,-7.874,4.089,-32.776
0.985,0.030,0.002,-8.911,3.357,-31.006
0.987,0.033,0.010,-9.583,0.122,-30.701
0.995,0.026,0.033,-8.728,-3.662,-31.067
1.000,0.009,0.062,-8.911,-5.676,-31.555
1.004,-0.012,0.089,-8.850,-5.676,-31.677
1.010,-0.034,0.105,-7.202,-5.188,-31.067
1.014,-0.043,0.120,-5.493,-3.967,-29.297
1.011,-0.045,0.122,-4.211,-2.136,-26.733
1.008,-0.034,0.111,-3.967,0.061,-24.048
1.005,-0.024,0.090,-3.723,2.136,-22.095
1.002,-0.024,0.074,-3.845,2.808,-20.996
1.000,-0.032,0.069,-3.723,1.831,-20.630
0.999,-0.027,0.080,-2.747,0.122,-19.836
0.997,-0.008,0.091,-0.244,-0.488,-18.677
0.999,-0.003,0.091,3.906,0.549,-18.860
0.992,0.000,0.086,5.066,2.930,-19.470
0.992,-0.007,0.075,6.897,4.211,-20.386
0.997,-0.020,0.073,7.874,3.418,-20.935
0.997,-0.036,0.079,7.080,2.502,-20.935
0.996,-0.048,0.077,7.324,2.258,-20.447
0.995,-0.051,0.066,6.836,2.747,-19.043
0.996,-0.059,0.055,6.042,2.441,-17.883
0.999,-0.068,0.053,4.395,1.160,-16.968
1.000,-0.063,0.066,2.441,-0.488,-15.442
1.000,-0.058,0.078,3.113,-1.343,-14.038
1.001,-0.057,0.086,4.150,-1.404,-13.733
1.001,-0.065,0.100,3.479,-1.221,-13.916
1.003,-0.068,0.109,3.906,-0.732,-13.794
1.003,-0.067,0.111,5.188,0.610,-13.123
1.003,-0.064,0.104,5.737,2.502,-12.512
1.003,-0.073,0.095,6.226,3.723,-12.512
1.003,-0.083,0.088,5.737,3.845,-12.817
1.005,-0.103,0.083,3.906,3.235,-12.024
1.003,-0.099,0.089,1.587,2.930,-9.521
1.001,-0.092,0.084,2.808,2.930,-7.141
1.000,-0.079,0.077,2.869,3.357,-5.310
1.000,-0.076,0.069,1.770,3.479,-4.639
1.000,-0.083,0.070,0.000,2.991,-4.333
0.998,-0.087,0.079,-1.404,2.197,-3.845
0.997,-0.087,0.085,-0.977,1.953,-2.869
0.997,-0.079,0.085,-1.099,2.563,-2.136
0.997,-0.072,0.079,0.427,3.479,-2.075
0.992,-0.065,0.069,2.136,4.089,-2.441
0.997,-0.069,0.060,2.747,3.540,-2.991
0.998,-0.090,0.062,1.831,2.319,-3.967
0.997,-0.104,0.072,0.000,1.160,-3.662
0.998,-0.100,0.080,-0.183,0.732,-1.953
1.000,-0.090,0.086,0.488,0.732,-0.671

1.160,-0.844,0.270,0.122,20.325,16.907
1.150,-1.099,0.341,-6.226,21.606,12.085
1.081,-1.534,0.344,-19.836,32.349,40.405
0.956,-1.700,0.295,-43.274,51.575,124.207
0.847,-1.660,0.141,-30.273,72.571,211.243
0.703,-1.493,-0.068,-1.770,84.167,285.034
0.515,-1.227,-0.269,-1.038,87.524,346.497
0.333,-1.021,-0.512,-0.916,82.336,390.869
0.090,-0.680,-0.693,6.470,60.425,430.481
-0.061,-0.181,-0.819,22.583,22.827,468.872
-0.113,0.341,-0.822,44.800,-21.790,490.479
-0.192,0.725,-0.714,55.847,-73.730,497.253
-0.206,0.985,-0.449,41.687,-120.239,520.752
-0.118,1.787,-0.066,41.931,-152.710,503.967
-0.025,2.089,0.271,80.261,-165.710,407.837
0.050,2.293,0.551,58.960,-151.367,312.317
0.151,2.288,0.716,41.382,-118.042,220.764
0.216,2.171,0.779,46.631,-77.820,140.869
0.272,2.013,0.734,45.105,-37.170,76.111
0.322,1.811,0.610,39.673,-4.578,24.109
0.354,1.616,0.470,31.128,16.907,-12.817
0.383,1.446,0.325,27.283,27.771,-36.926
0.437,1.313,0.211,22.583,25.452,-50.049
0.503,1.260,0.202,13.672,8.545,-53.528
0.556,1.209,0.297,5.676,-11.536,-56.519
0.566,1.129,0.414,-0.061,-22.583,-62.561
0.667,1.067,0.461,-3.967,-19.470,-67.505
0.662,1.011,0.477,-4.456,-7.263,-71.655
0.650,1.030,0.453,-9.155,6.714,-72.876
0.635,1.027,0.375,-6.409,23.865,-78.735
0.621,0.975,0.273,-6.653,38.147,-90.759
0.608,0.895,0.174,-11.597,47.913,-104.370
0.596,0.812,0.082,-13.000,52.246,-115.479
0.587,0.745,0.009,-12.329,51.697,-123.230
0.585,0.685,-0.061,-12.451,48.340,-128.845
0.596,0.604,-0.119,-14.954,41.870,-133.911
0.615,0.521,-0.143,-20.996,31.921,-136.536
0.636,0.441,-0.141,-24.170,19.958,-135.925
0.670,0.397,-0.098,-27.100,5.981,-132.629
0.713,0.366,-0.036,-27.710,-5.798,-127.380
0.752,0.334,0.018,-27.100,-14.893,-123.413
0.792,0.316,0.061,-28.870,-19.958,-119.324
0.827,0.316,0.100,-29.419,-21.729,-114.929
0.855,0.313,0.134,-26.062,-21.484,-111.694
0.876,0.289,0.149,-22.156,-19.653,-110.657
0.896,0.268,0.167,-21.057,-16.602,-109.558
0.900,0.256,0.183,-16.785,-13.977,-107.361
0.907,0.263,0.185,-8.789,-10.620,-104.919
0.916,0.264,0.177,-2.747,-6.775,-103.210
0.930,0.240,0.173,-0.549,-4.700,-102.905
0.941,0.189,0.178,-0.366,-4.578,-103.027
0.941,0.150,0.185,-0.671,-3.479,-100.708
0.950,0.118,0.186,2.258,-2.319,-96.313
0.962,0.116,0.195,3.296,-1.038,-89.722
0.968,0.130,0.203,3.479,0.854,-82.825
0.968,0.154,0.199,4.883,3.906,-77.209
0.969,0.176,0.170,5.920,7.874,-73.669
0.965,0.192,0.137,4.150,11.475,-71.899
0.961,0.193,0.113,2.869,11.658,-71.594
0.959,0.172,0.106,1.587,9.399,-71.960
0.968,0.135,0.119,-0.427,7.324,-71.960
0.970,0.095,0.145,-1.160,5.432,-70.862
0.973,0.068,0.156,0.061,5.859,-68.115
0.975,0.046,0.140,2.197,8.911,-63.965
0.974,0.035,0.118,2.502,12.512,-59.204
0.969,0.031,0.096,2.563,13.367,-54.810
0.966,0.041,0.084,2.808,12.390,-50.537
0.965,0.066,0.077,3.784,10.620,-47.119
0.963,0.089,0.080,4.578,8.911,-45.166
0.969,0.100,0.090,4.822,6.836,-44.861
0.975,0.093,0.100,3.967,5.249,-46.204
0.980,0.067,0.108,2.930,4.761,-47.729
0.987,0.032,0.109,1.282,5.005,-47.974
0.984,0.006,0.111,0.366,5.493,-47.058
0.991,-0.009,0.107,0.793,5.798,-44.678
0.998,-0.021,0.104,1.953,5.859,-42.358
1.001,-0.026,0.101,2.197,5.615,-39.795
1.000,-0.029,0.102,2.808,5.798,-37.231
1.000,-0.020,0.107,3.784,5.981,-34.851
1.000,-0.010,0.110,5.615,5.676,-32.959
0.999,-0.010,0.108,6.714,5.737,-32.043
0.994,-0.011,0.104,5.981,6.348,-31.433
0.990,-0.014,0.101,5.188,6.775,-30.396
0.991,-0.016,0.107,4.211,6.165,-29.236
0.990,-0.020,0.117,3.723,5.737,-28.564
0.991,-0.023,0.118,3.601,6.348,-27.893
0.991,-0.032,0.109,3.906,7.874,-27.344
0.995,-0.052,0.091,3.662,8.728,-26.978
0.997,-0.072,0.078,2.380,8.667,-26.123
0.999,-0.088,0.076,1.587,7.019,-23.987
0.996,-0.095,0.078,2.625,5.249,-21.118
0.996,-0.075,0.086,2.502,4.089,-17.578
0.997,-0.043,0.093,2.380,3.540,-14.526
0.998,-0.034,0.094,2.808,3.479,-14.038
1.000,-0.042,0.099,0.732,3.418,-15.259
1.000,-0.061,0.104,-1.465,2.686,-15.930
0.998,-0.071,0.113,-2.808,2.075,-15.320
1.000,-0.084,0.111,-3.967,2.686,-14.038
0.998,-0.097,0.106,-4.944,3.540,-12.817
0.997,-0.099,0.103,-5.066,3.662,-11.536
0.996,-0.092,0.099,-1.404,3.967,-9.827
1.001,-0.088,0.094,2.075,3.906,-8.484
1.001,-0.097,0.093,3.174,3.235,-8.301
1.001,-0.111,0.093,3.052,3.052,-7.996
1.000,-0.115,0.088,3.662,3.174,-6.287
0.999,-0.095,0.086,3.052,3.052,-3.357
0.993,-0.072,0.087,2.197,2.563,-1.648
0.989,-0.049,0.090,0.427,1.648,-1.221
0.988,-0.034,0.094,-1.099,1.343,-1.282
0.988,-0.036,0.102,-1.587,1.099,-2.319
0.990,-0.049,0.111,-1.282,0.977,-4.150
0.993,-0.068,0.111,0.366,1.343,-5.493
0.995,-0.081,0.106,1.465,2.686,-5.676
0.996,-0.091,0.096,2.136,4.028,-5.005
1.000,-0.109,0.087,3.113,3.601,-4.456
1.001,-0.124,0.081,1.282,2.441,-3.174
0.999,-0.128,0.079,-0.671,1.526,-1.343
1.000,-0.111,0.078,-2.136,0.549,1.282
0.998,-0.090,0.087,-2.563,-1.038,3.601

1.191,-1.072,0.321,36.499,10.986,-38.330
1.118,-1.556,0.408,39.368,18.738,-36.987
1.017,-2.014,0.494,39.001,33.508,44.312
0.852,-1.984,0.529,68.909,52.673,150.879
0.673,-1.606,0.453,133.118,73.730,245.300
0.606,-1.112,0.280,174.255,91.614,318.604
0.500,-0.656,0.111,175.964,99.365,357.117
0.422,-0.261,-0.105,162.659,100.281,373.596
0.373,0.096,-0.302,151.672,91.248,383.728
0.332,0.385,-0.426,140.869,67.200,388.794
0.287,0.567,-0.420,127.625,31.555,398.071
0.274,0.857,-0.286,114.075,-6.836,399.109
0.293,1.199,-0.109,115.356,-36.682,369.202
0.319,1.372,0.002,112.488,-51.575,305.847
0.323,1.401,0.066,80.322,-53.345,247.314
0.347,1.383,0.097,40.710,-51.697,204.956
0.361,1.350,0.130,23.682,-52.979,175.598
0.377,1.355,0.166,13.916,-55.359,153.625
0.399,1.387,0.188,4.883,-55.664,132.751
0.431,1.380,0.200,1.404,-56.274,109.619
0.471,1.340,0.238,-2.563,-60.059,86.121
0.506,1.283,0.316,-6.348,-66.162,65.857
0.548,1.249,0.403,-7.629,-70.007,50.049
0.584,1.253,0.475,-9.399,-67.566,37.781
0.608,1.266,0.503,-9.766,-57.556,25.818
0.626,1.263,0.488,-9.460,-42.480,11.780
0.631,1.222,0.445,-12.695,-27.832,-3.296
0.639,1.164,0.394,-17.517,-16.235,-17.822
0.633,1.113,0.342,-19.714,-7.385,-31.250
0.629,1.061,0.278,-20.020,-0.610,-43.396
0.616,1.020,0.203,-21.973,5.005,-55.298
0.612,0.974,0.123,-23.987,8.667,-66.711
0.607,0.930,0.061,-26.855,8.484,-77.759
0.609,0.871,0.020,-29.175,4.211,-88.379
0.618,0.794,0.001,-30.212,-1.709,-98.572
0.642,0.709,0.003,-33.997,-8.972,-106.750
0.656,0.657,0.038,-40.588,-16.663,-110.352
0.681,0.613,0.068,-41.687,-21.423,-112.488
0.703,0.578,0.083,-42.419,-23.254,-114.014
0.719,0.569,0.089,-44.922,-24.780,-115.112
0.740,0.562,0.090,-44.434,-26.611,-116.577
0.755,0.536,0.100,-44.312,-30.518,-119.690
0.776,0.474,0.120,-46.570,-35.767,-124.084
0.802,0.380,0.157,-50.415,-41.992,-128.113
0.833,0.284,0.212,-52.246,-46.875,-128.723
0.869,0.209,0.267,-49.133,-46.387,-124.878
0.885,0.164,0.312,-40.955,-40.833,-117.676
0.901,0.151,0.322,-29.663,-31.250,-109.131
0.916,0.167,0.301,-20.691,-19.958,-100.281
0.931,0.192,0.261,-15.625,-10.254,-92.773
0.935,0.217,0.230,-14.648,-3.601,-87.158
0.938,0.216,0.204,-13.794,-1.221,-84.045
0.951,0.191,0.191,-15.198,-1.099,-82.092
0.957,0.158,0.198,-17.090,-2.258,-79.651
0.966,0.139,0.223,-16.968,-3.296,-75.378
0.974,0.130,0.237,-13.672,-2.136,-70.374
0.972,0.125,0.232,-10.315,1.038,-65.979
0.973,0.112,0.207,-7.996,5.432,-62.073
0.971,0.101,0.176,-7.141,8.545,-58.472
0.961,0.105,0.146,-6.714,9.583,-53.650
0.956,0.118,0.121,-5.432,8.850,-48.706
0.960,0.128,0.110,-4.395,7.324,-44.495
0.954,0.151,0.122,-3.906,5.493,-40.649
0.956,0.164,0.130,-1.282,4.639,-37.781
0.962,0.155,0.139,-0.244,4.761,-36.499
0.958,0.146,0.150,-1.343,4.944,-35.645
0.963,0.143,0.149,-0.610,5.676,-33.630
0.963,0.155,0.142,-0.305,6.836,-30.884
0.963,0.171,0.132,-0.977,7.690,-28.931
0.960,0.188,0.130,-0.671,6.897,-28.442
0.963,0.203,0.137,-0.549,5.310,-28.687
0.968,0.196,0.146,-1.038,3.662,-30.029
0.973,0.169,0.154,-1.831,2.930,-32.043
0.977,0.157,0.163,-2.197,3.235,-32.410
0.981,0.145,0.163,-0.244,4.456,-31.982
0.984,0.131,0.155,0.732,6.226,-31.494
0.981,0.119,0.139,0.122,7.751,-30.762
0.983,0.115,0.128,-0.305,8.179,-28.992
0.981,0.112,0.124,-0.793,7.690,-27.222
0.979,0.112,0.120,-1.282,6.775,-25.879
0.980,0.108,0.115,-2.014,6.104,-24.841
0.978,0.099,0.121,-2.625,4.761,-23.987
0.978,0.088,0.127,-3.235,3.601,-22.888
0.976,0.090,0.131,-3.174,3.540,-21.118
0.973,0.113,0.132,-3.113,4.028,-19.165
0.974,0.124,0.121,-2.258,4.761,-18.494
0.968,0.127,0.114,-3.479,5.005,-19.226
0.971,0.113,0.110,-3.845,4.395,-20.752
0.972,0.085,0.105,-2.930,3.174,-21.973
0.976,0.041,0.100,-3.296,2.258,-22.217
0.980,0.013,0.106,-3.906,0.977,-20.752
0.981,0.010,0.113,-1.587,-0.061,-17.456
0.984,0.026,0.114,2.075,-0.427,-13.611
0.988,0.049,0.113,4.028,-0.427,-10.986
0.993,0.050,0.113,4.150,-0.488,-10.071
0.990,0.064,0.126,1.099,-0.916,-9.338
0.993,0.065,0.137,0.366,-1.770,-9.338
0.997,0.058,0.149,-0.427,-2.136,-9.888
0.996,0.048,0.159,-1.770,-1.770,-10.010
0.992,0.055,0.166,-0.854,-1.038,-9.094
0.997,0.060,0.165,1.587,-0.244,-8.240
0.997,0.050,0.161,1.892,0.366,-8.606
1.000,0.026,0.153,1.099,0.793,-9.155
0.997,0.026,0.155,0.366,1.404,-7.141
0.994,0.051,0.157,1.709,1.526,-3.479
0.991,0.085,0.153,3.906,1.770,-1.770
0.990,0.102,0.145,2.075,2.563,-2.197
0.983,0.104,0.142,-0.122,2.930,-4.028
0.979,0.099,0.142,-0.427,2.441,-5.737
0.979,0.095,0.141,0.427,2.136,-7.080
0.982,0.086,0.145,0.366,2.197,-8.179
0.982,0.077,0.156,0.183,2.136,-9.338
0.982,0.067,0.153,0.916,2.991,-9.949
0.985,0.058,0.139,1.160,4.700,-10.071
0.983,0.048,0.124,0.244,5.615,-9.949
0.987,0.033,0.115,-0.183,4.578,-9.827
0.985,0.028,0.120,-0.854,2.869,-8.789
0.985,0.027,0.125,-1.038,1.404,-7.263
0.992,0.012,0.121,-0.793,0.977,-6.470

1.218,-0.838,0.500,9.827,32.043,13.123
1.224,-1.133,0.654,7.935,42.725,9.460
1.126,-1.750,0.744,-0.610,63.232,38.696
0.919,-1.877,0.749,-26.245,100.586,129.883
0.684,-1.641,0.493,3.357,148.315,234.131
0.543,-1.122,0.078,54.321,186.951,323.792
0.370,-0.536,-0.323,79.346,200.073,378.845
0.328,-0.047,-0.692,90.637,182.922,403.931
0.301,0.298,-0.864,91.248,135.803,405.518
0.256,0.507,-0.851,83.008,73.364,387.573
0.210,0.604,-0.693,75.928,16.052,370.789
0.188,0.761,-0.458,75.745,-26.550,365.784
0.186,0.984,-0.194,74.158,-53.162,361.755
0.206,1.418,0.008,70.801,-59.509,329.529
0.218,1.591,0.065,73.059,-49.011,271.240
0.221,1.667,0.040,53.955,-31.738,216.309
0.216,1.650,-0.002,41.016,-23.193,166.809
0.238,1.672,0.024,39.063,-29.358,128.357
0.282,1.711,0.107,40.588,-42.725,95.764
0.335,1.731,0.228,38.086,-54.688,63.843
0.373,1.709,0.334,33.569,-60.120,32.532
0.432,1.675,0.384,28.198,-56.702,5.615
0.470,1.623,0.404,19.226,-49.316,-17.212
0.504,1.555,0.412,8.728,-41.687,-38.330
0.534,1.469,0.408,1.953,-35.522,-57.739
0.564,1.385,0.412,-3.723,-30.579,-75.134
0.582,1.286,0.403,-7.385,-24.353,-91.553
0.599,1.161,0.372,-10.742,-15.259,-105.957
0.605,0.987,0.323,-16.052,-4.700,-118.530
0.625,0.815,0.245,-22.461,5.676,-126.526
0.637,0.652,0.151,-24.841,14.893,-129.517
0.641,0.551,0.077,-27.039,18.005,-127.319
0.644,0.480,0.020,-26.917,17.700,-122.803
0.662,0.444,-0.037,-26.978,15.442,-118.225
0.679,0.416,-0.085,-28.931,10.620,-114.380
0.692,0.410,-0.110,-31.677,3.235,-110.779
0.720,0.395,-0.130,-31.982,-3.662,-108.154
0.745,0.381,-0.133,-34.607,-10.376,-105.469
0.770,0.352,-0.120,-35.706,-16.479,-103.516
0.793,0.306,-0.097,-33.508,-22.644,-101.563
0.819,0.276,-0.067,-31.128,-28.625,-98.206
0.852,0.253,-0.026,-28.992,-36.072,-93.506
0.890,0.223,0.034,-27.710,-44.250,-88.867
0.914,0.193,0.111,-26.184,-49.011,-84.473
0.934,0.175,0.175,-21.790,-48.584,-79.834
0.947,0.178,0.209,-16.052,-43.579,-73.608
0.947,0.216,0.224,-11.475,-35.950,-66.101
0.949,0.270,0.217,-4.761,-27.344,-59.875
0.954,0.321,0.195,0.000,-19.897,-56.396
0.948,0.365,0.179,-0.244,-14.954,-55.420
0.949,0.368,0.169,-1.831,-13.062,-56.824
0.947,0.348,0.180,-5.005,-12.878,-58.899
0.946,0.317,0.198,-7.690,-13.062,-59.692
0.955,0.286,0.208,-8.850,-12.512,-59.082
0.963,0.256,0.228,-11.108,-11.475,-57.068
0.963,0.234,0.246,-11.475,-8.850,-54.565
0.965,0.232,0.238,-7.507,-3.601,-51.270
0.965,0.240,0.211,-2.747,2.075,-48.218
0.965,0.236,0.176,-0.061,6.958,-46.326
0.956,0.229,0.144,0.610,10.193,-44.861
0.948,0.229,0.111,2.441,11.719,-42.908
0.944,0.238,0.086,4.272,11.292,-40.527
0.934,0.255,0.077,3.052,8.911,-38.452
0.931,0.268,0.073,1.404,6.409,-37.292
0.929,0.272,0.071,-0.732,4.028,-37.598
0.926,0.268,0.073,-2.747,1.831,-38.635
0.927,0.255,0.082,-4.272,0.610,-39.856
0.932,0.233,0.096,-5.432,-0.427,-40.771
0.943,0.186,0.103,-5.554,-1.404,-41.870
0.950,0.142,0.110,-6.592,-1.038,-41.016
0.959,0.126,0.118,-6.287,-0.488,-37.781
0.968,0.121,0.117,-2.686,-0.305,-33.997
0.976,0.133,0.111,-1.160,0.061,-30.579
0.979,0.147,0.102,-0.244,0.305,-28.259
0.978,0.161,0.093,0.244,-0.305,-26.917
0.977,0.182,0.093,-0.366,-0.916,-26.001
0.972,0.204,0.091,-0.854,-1.831,-25.635
0.967,0.214,0.089,-2.075,-2.991,-26.794
0.961,0.208,0.087,-4.639,-4.272,-29.053
0.953,0.193,0.091,-6.653,-5.981,-31.250
0.957,0.168,0.094,-7.446,-8.667,-32.776
0.954,0.145,0.106,-9.949,-11.353,-33.142
0.960,0.122,0.118,-11.597,-13.062,-32.776
0.964,0.098,0.133,-11.047,-13.916,-31.982
0.972,0.083,0.150,-10.681,-14.709,-30.640
0.980,0.086,0.168,-10.376,-14.160,-27.588
0.981,0.109,0.183,-9.338,-11.536,-23.926
0.987,0.125,0.185,-5.859,-7.996,-22.583
0.992,0.124,0.182,-4.517,-5.127,-23.132
0.988,0.111,0.179,-4.944,-3.601,-24.475
0.985,0.108,0.181,-4.272,-2.380,-24.536
0.988,0.110,0.182,-1.343,-1.709,-24.658
0.987,0.110,0.187,0.366,-1.587,-25.146
0.990,0.105,0.197,0.671,-0.977,-25.879
0.994,0.087,0.195,1.038,-0.061,-26.978
0.991,0.078,0.184,0.000,1.648,-26.978
0.989,0.066,0.159,-0.671,3.296,-26.306
0.987,0.059,0.131,-1.953,3.723,-25.574
0.986,0.046,0.120,-4.395,2.502,-24.170
0.983,0.044,0.129,-6.042,0.061,-22.583
0.990,0.036,0.153,-5.493,-2.197,-21.118
0.991,0.032,0.184,-5.127,-3.540,-20.081
0.988,0.036,0.200,-4.700,-2.625,-19.226
0.989,0.035,0.183,-2.625,0.549,-19.104
0.988,0.030,0.151,-1.831,3.906,-19.226
0.981,0.027,0.129,-1.465,4.883,-19.165
0.978,0.031,0.124,0.366,3.540,-18.921
0.980,0.031,0.126,4.272,1.892,-19.043
0.976,0.024,0.132,7.996,0.549,-19.531
0.981,0.010,0.132,8.972,0.183,-19.531
0.979,0.006,0.136,8.057,0.244,-18.372
0.984,0.003,0.144,7.080,-0.244,-16.602
0.987,0.000,0.156,5.310,-1.221,-14.648
0.996,-0.001,0.165,1.587,-1.526,-12.512
0.993,-0.000,0.166,-1.282,-1.282,-10.315
0.993,0.006,0.164,-3.662,-0.610,-8.057
0.996,0.006,0.162,-4.272,-0.366,-7.202
0.997,-0.000,0.169,-4.333,-0.977,-6.897
0.996,0.002,0.190,-4.089,-1.526,-6.348

1.208,-0.581,0.546,-30.090,32.837,-29.419
1.289,-0.952,0.642,-19.165,46.204,-47.302
1.289,-1.597,0.777,-11.780,57.312,-64.758
1.140,-2.276,0.999,-38.574,74.707,-10.376
0.914,-2.416,1.102,-50.293,112.122,111.084
0.658,-2.160,0.877,7.141,170.715,240.234
0.359,-1.581,0.425,51.941,233.582,347.412
0.181,-0.961,-0.155,65.369,278.076,418.335
0.026,-0.496,-0.732,81.116,282.715,453.125
-0.079,0.035,-1.120,90.698,243.958,469.299
-0.077,0.548,-1.305,108.643,172.424,469.788
-0.062,0.850,-1.219,121.460,79.163,457.947
-0.072,1.010,-0.842,110.474,-11.047,452.759
0.033,1.492,-0.402,100.342,-71.716,419.983
0.106,1.655,-0.058,113.586,-91.614,332.275
0.143,1.653,0.134,90.759,-75.439,249.878
0.181,1.575,0.164,66.467,-46.265,186.462
0.232,1.556,0.118,67.078,-27.039,143.921
0.274,1.583,0.088,68.054,-20.569,111.328
0.310,1.546,0.060,67.139,-20.203,77.820
0.362,1.481,0.027,64.148,-23.926,47.729
0.418,1.430,0.038,58.777,-34.668,27.100
0.474,1.421,0.104,53.528,-51.208,14.771
0.517,1.461,0.224,45.837,-66.467,6.104
0.544,1.535,0.349,36.011,-73.303,-2.625
0.575,1.583,0.419,28.748,-68.909,-16.296
0.623,1.584,0.426,20.203,-56.091,-35.828
0.588,1.526,0.408,11.230,-41.687,-58.167
0.611,1.397,0.345,4.211,-27.039,-81.726
0.565,1.267,0.330,-3.906,-17.578,-101.929
0.585,1.136,0.292,-7.751,-9.216,-117.126
0.581,0.993,0.238,-9.399,0.122,-130.127
0.599,0.825,0.177,-14.954,7.690,-141.174
0.605,0.654,0.133,-21.973,10.376,-147.766
0.615,0.523,0.112,-26.428,9.338,-149.048
0.641,0.437,0.093,-22.400,8.667,-145.813
0.666,0.392,0.070,-16.968,9.216,-140.076
0.690,0.374,0.030,-15.137,10.681,-134.033
0.715,0.348,-0.024,-13.794,11.597,-129.822
0.743,0.314,-0.070,-14.709,8.911,-126.648
0.769,0.287,-0.097,-18.616,2.197,-122.620
0.800,0.263,-0.101,-22.644,-6.104,-117.676
0.819,0.251,-0.069,-26.367,-15.442,-112.183
0.848,0.226,-0.024,-26.794,-25.024,-107.788
0.880,0.196,0.031,-27.710,-32.898,-104.553
0.911,0.152,0.089,-28.137,-37.598,-101.074
0.936,0.100,0.152,-26.062,-38.940,-97.656
0.961,0.062,0.205,-24.109,-36.255,-92.773
0.981,0.043,0.240,-18.372,-29.968,-86.060
0.992,0.038,0.247,-8.850,-21.362,-78.491
0.991,0.074,0.241,0.000,-12.451,-70.862
0.996,0.125,0.212,10.254,-5.371,-64.087
0.999,0.169,0.179,17.395,-1.038,-59.448
0.993,0.190,0.152,18.616,1.404,-57.617
0.987,0.187,0.136,18.372,1.953,-57.190
0.988,0.176,0.139,16.296,-0.244,-55.542
0.992,0.159,0.149,12.390,-2.563,-52.856
0.990,0.151,0.161,7.507,-2.747,-49.561
0.983,0.148,0.166,5.554,-1.282,-45.715
0.978,0.160,0.168,5.188,-0.122,-41.626
0.974,0.187,0.169,5.493,0.488,-38.086
0.980,0.194,0.163,6.470,2.563,-36.316
0.960,0.204,0.162,4.883,5.493,-35.706
0.954,0.203,0.138,7.446,8.606,-35.461
0.948,0.209,0.112,9.766,10.315,-35.034
0.944,0.218,0.096,8.362,10.132,-35.034
0.945,0.211,0.095,7.629,8.301,-35.950
0.950,0.192,0.109,8.057,5.310,-37.170
0.954,0.180,0.124,8.301,3.784,-37.964
0.959,0.184,0.138,9.033,4.028,-37.476
0.967,0.177,0.144,8.667,5.188,-37.048
0.970,0.170,0.147,5.859,6.775,-37.476
0.973,0.164,0.140,4.700,8.606,-38.025
0.978,0.151,0.119,6.775,10.559,-38.757
0.980,0.129,0.103,5.981,11.353,-39.551
0.977,0.128,0.104,4.150,10.193,-39.612
0.984,0.137,0.114,5.859,7.812,-39.368
0.988,0.130,0.123,6.653,6.165,-40.161
0.986,0.113,0.134,4.272,6.348,-42.542
0.991,0.089,0.137,3.662,7.324,-44.250
0.988,0.077,0.137,5.005,8.362,-44.434
0.990,0.061,0.130,5.920,9.460,-44.312
0.991,0.036,0.127,7.263,10.559,-44.800
0.990,0.020,0.124,7.385,10.986,-44.373
0.993,0.019,0.124,9.033,11.536,-43.457
0.986,0.016,0.115,11.841,12.329,-42.358
0.984,0.029,0.097,12.207,14.282,-41.321
0.979,0.035,0.072,13.367,15.137,-41.443
0.970,0.038,0.046,13.550,14.465,-42.664
0.972,0.016,0.017,11.230,12.451,-43.884
0.967,-0.008,0.019,6.165,9.155,-44.312
0.972,-0.049,0.037,2.808,4.272,-43.823
0.983,-0.085,0.079,1.709,0.000,-42.175
0.987,-0.092,0.124,1.282,-1.404,-38.635
0.992,-0.085,0.140,5.310,0.366,-34.607
0.995,-0.072,0.127,8.423,4.700,-31.433
0.997,-0.069,0.100,9.705,8.606,-29.724
1.001,-0.079,0.082,10.071,9.460,-28.870
1.001,-0.097,0.085,10.498,8.179,-28.015
1.001,-0.103,0.093,11.108,6.897,-26.245
1.000,-0.084,0.098,11.719,6.897,-23.132
1.000,-0.058,0.095,11.536,7.507,-20.630
0.996,-0.049,0.094,10.803,7.507,-20.447
0.995,-0.063,0.086,9.644,7.507,-21.729
0.997,-0.081,0.086,7.202,7.385,-22.278
0.995,-0.106,0.094,6.104,6.287,-21.973
0.996,-0.119,0.097,5.920,5.615,-20.752
0.997,-0.127,0.090,6.348,6.226,-18.799
0.998,-0.136,0.080,6.226,6.226,-16.968
0.995,-0.132,0.078,3.601,5.310,-14.526
0.992,-0.102,0.089,1.770,4.395,-11.963
0.997,-0.077,0.095,3.357,3.418,-10.803
0.994,-0.065,0.098,3.418,3.601,-12.207
0.994,-0.077,0.093,2.258,4.944,-14.587
0.996,-0.103,0.091,3.174,5.127,-16.846
0.998,-0.127,0.095,3.540,4.517,-17.517
0.999,-0.146,0.098,3.784,4.272,-17.273
1.000,-0.167,0.095,5.005,4.395,-16.418
1.001,-0.187,0.085,4.761,4.578,-14.709

1.212,-0.918,0.299,-37.537,4.944,-2.380
1.199,-1.312,0.390,-69.092,7.751,-18.188
1.068,-2.045,0.419,-128.052,21.729,15.137
0.943,-2.345,0.380,-196.106,52.002,128.845
0.718,-2.224,0.233,-184.875,87.341,247.314
0.452,-1.718,-0.041,-120.667,119.690,354.797
0.263,-0.994,-0.366,-58.289,135.864,432.617
0.160,-0.276,-0.618,-8.179,121.338,472.046
0.142,0.294,-0.749,28.809,82.153,477.661
0.139,0.549,-0.780,42.542,35.217,469.849
0.177,0.755,-0.654,28.015,-11.963,458.374
0.225,0.947,-0.437,28.442,-52.185,411.194
0.234,0.977,-0.207,33.447,-72.327,337.463
0.216,0.984,-0.042,12.329,-71.594,287.598
0.225,1.074,0.026,5.005,-59.509,261.475
0.245,1.241,0.069,20.752,-50.110,241.455
0.272,1.436,0.120,34.546,-43.945,219.055
0.314,1.615,0.149,46.997,-35.583,189.636
0.352,1.693,0.138,58.411,-25.940,148.804
0.391,1.658,0.129,57.495,-21.729,104.492
0.431,1.578,0.168,48.218,-26.306,68.604
0.489,1.551,0.244,41.687,-34.729,46.326
0.534,1.587,0.328,36.011,-40.100,32.593
0.559,1.641,0.387,26.001,-38.025,19.165
0.585,1.632,0.390,14.221,-29.114,0.916
0.578,1.528,0.376,2.502,-18.799,-21.118
0.641,1.407,0.332,-5.249,-9.888,-42.542
0.621,1.257,0.302,-7.385,-2.441,-60.303
0.614,1.195,0.277,-11.047,2.930,-71.533
0.627,1.102,0.231,-5.676,11.353,-83.801
0.619,0.978,0.173,-3.418,19.897,-98.755
0.623,0.833,0.102,-4.639,27.161,-111.877
0.618,0.711,0.034,-3.174,30.151,-119.568
0.626,0.620,-0.003,-0.916,28.748,-122.253
0.649,0.539,-0.009,0.183,24.048,-123.169
0.669,0.460,-0.002,0.610,19.592,-123.413
0.688,0.404,-0.007,2.502,17.883,-121.216
0.711,0.375,-0.033,6.714,18.066,-117.493
0.741,0.366,-0.072,10.986,17.212,-113.403
0.771,0.357,-0.098,12.634,13.550,-110.168
0.802,0.335,-0.097,11.475,6.714,-108.032
0.832,0.313,-0.068,8.240,-0.854,-105.530
0.854,0.291,-0.031,4.822,-7.263,-101.685
0.877,0.255,0.001,1.648,-12.451,-98.633
0.893,0.208,0.038,-1.465,-15.808,-95.764
0.913,0.164,0.077,-2.136,-18.066,-90.759
0.924,0.138,0.116,-1.465,-20.325,-84.167
0.930,0.132,0.136,1.099,-19.836,-76.782
0.945,0.144,0.138,6.897,-16.602,-69.580
0.947,0.182,0.147,12.207,-13.062,-61.951
0.949,0.232,0.149,16.602,-10.315,-56.152
0.958,0.277,0.154,18.860,-7.935,-53.040
0.962,0.285,0.162,20.142,-6.287,-52.856
0.966,0.279,0.175,18.616,-4.517,-54.016
0.971,0.259,0.180,17.212,-2.808,-54.688
0.974,0.239,0.177,16.113,-1.343,-54.016
0.971,0.233,0.180,14.160,0.061,-51.697
0.976,0.227,0.176,13.733,1.404,-49.500
0.975,0.221,0.173,13.000,2.686,-47.241
0.970,0.213,0.164,11.902,4.456,-45.166
0.967,0.214,0.146,11.902,6.104,-42.969
0.959,0.220,0.127,12.939,7.629,-41.016
0.954,0.223,0.114,14.160,8.545,-39.795
0.950,0.219,0.102,14.954,8.667,-38.940
0.942,0.226,0.100,13.794,8.057,-37.415
0.942,0.230,0.105,12.695,7.019,-36.072
0.942,0.226,0.110,10.193,6.042,-35.645
0.941,0.228,0.116,7.812,6.104,-35.706
0.945,0.229,0.114,8.423,6.592,-35.889
0.948,0.247,0.120,9.094,6.714,-36.194
0.956,0.251,0.118,11.047,7.324,-37.903
0.963,0.229,0.112,12.573,8.301,-41.626
0.969,0.188,0.106,12.756,8.850,-44.922
0.974,0.153,0.110,13.184,8.179,-46.570
0.978,0.146,0.116,13.489,7.568,-46.082
0.984,0.142,0.110,15.686,7.690,-45.227
0.986,0.139,0.105,16.235,7.751,-44.922
0.984,0.123,0.101,14.465,7.141,-45.227
0.981,0.105,0.101,12.573,6.104,-45.410
0.983,0.092,0.110,10.681,4.761,-44.800
0.983,0.071,0.121,10.193,3.357,-44.128
0.986,0.042,0.126,9.521,3.113,-43.640
0.987,0.019,0.133,7.690,4.028,-41.870
0.983,0.021,0.138,7.263,5.310,-38.513
0.988,0.039,0.130,10.437,7.080,-34.973
0.986,0.059,0.125,10.803,9.094,-32.898
0.983,0.083,0.121,9.277,10.559,-32.471
0.986,0.089,0.112,11.292,11.841,-33.508
0.983,0.084,0.110,13.000,12.695,-35.278
0.984,0.068,0.100,14.343,13.306,-37.231
0.983,0.048,0.083,16.846,14.282,-38.818
0.982,0.046,0.078,17.456,14.038,-38.635
0.989,0.034,0.075,18.188,12.146,-38.147
0.991,0.005,0.082,14.587,10.010,-38.330
0.996,-0.027,0.097,9.705,8.362,-38.086
0.994,-0.047,0.100,7.996,7.874,-36.194
0.995,-0.040,0.093,6.897,8.850,-32.532
0.993,-0.030,0.077,6.226,9.460,-29.541
0.991,-0.021,0.063,4.517,9.277,-28.076
0.989,-0.012,0.060,2.380,7.690,-27.527
0.991,-0.012,0.065,2.136,5.493,-28.015
0.994,-0.024,0.074,1.587,4.150,-28.992
0.999,-0.057,0.082,0.671,3.967,-30.457
0.999,-0.092,0.089,-0.183,4.272,-30.579
0.999,-0.115,0.091,0.000,4.700,-28.687
1.001,-0.135,0.094,2.258,4.395,-26.062
1.002,-0.137,0.105,3.662,3.967,-22.827
1.000,-0.109,0.113,5.127,4.639,-18.494
1.001,-0.077,0.104,8.423,6.348,-14.832
1.000,-0.060,0.090,8.606,7.629,-13.428
0.994,-0.051,0.078,4.822,7.935,-13.916
0.992,-0.054,0.073,2.563,6.592,-14.587
0.992,-0.056,0.078,1.831,4.578,-14.954
0.991,-0.067,0.088,1.221,3.174,-15.747
0.998,-0.091,0.097,0.916,2.380,-16.663
1.001,-0.126,0.110,0.427,1.587,-17.090
1.002,-0.148,0.115,0.366,2.625,-15.991
1.002,-0.154,0.104,3.113,5.310,-13.367
1.000,-0.130,0.085,5.798,7.385,-9.766

1.158,-0.999,0.421,1.709,16.235,-14.221
1.151,-1.509,0.471,8.484,28.809,-15.686
1.045,-2.016,0.501,-8.423,48.828,35.339
0.908,-2.205,0.455,-24.231,78.125,135.071
0.724,-2.129,0.269,-2.258,107.727,240.112
0.480,-1.649,0.024,9.094,131.836,332.336
0.253,-1.027,-0.345,14.709,148.804,404.236
0.167,-0.428,-0.740,20.142,146.118,446.167
0.096,0.080,-0.972,19.287,108.704,458.801
0.043,0.560,-0.976,26.978,45.471,454.529
0.034,0.792,-0.839,39.673,-18.982,451.538
0.106,1.173,-0.524,36.621,-75.073,457.397
0.231,1.674,-0.172,53.955,-111.328,392.883
0.304,1.829,0.112,62.378,-116.455,294.617
0.370,1.848,0.277,31.982,-96.252,214.783
0.420,1.805,0.333,24.719,-68.848,151.306
0.471,1.777,0.343,27.466,-45.532,101.135
0.510,1.663,0.312,32.288,-28.687,52.917
0.553,1.465,0.249,33.020,-15.381,9.949
0.610,1.254,0.182,31.189,-9.033,-19.470
0.671,1.091,0.167,28.931,-12.451,-34.851
0.735,0.996,0.217,26.123,-23.804,-39.124
0.795,0.956,0.318,20.447,-35.461,-37.720
0.831,0.942,0.411,14.404,-39.063,-36.072
0.849,0.945,0.442,9.949,-31.006,-35.950
0.850,0.954,0.399,5.615,-15.930,-38.513
0.837,0.955,0.317,2.502,0.122,-43.762
0.810,0.917,0.229,0.488,13.123,-52.856
0.775,0.862,0.146,-1.953,21.729,-63.354
0.746,0.798,0.073,-4.761,26.550,-74.341
0.724,0.736,0.007,-6.287,29.480,-84.412
0.724,0.642,-0.045,-6.409,28.625,-94.055
0.727,0.514,-0.066,-9.705,24.170,-103.638
0.739,0.375,-0.080,-13.611,18.616,-109.131
0.755,0.264,-0.099,-15.564,13.184,-108.948
0.788,0.188,-0.123,-17.212,7.324,-103.882
0.811,0.150,-0.118,-17.273,0.732,-96.497
0.837,0.124,-0.105,-15.076,-6.226,-88.806
0.871,0.118,-0.096,-16.113,-12.939,-80.566
0.902,0.132,-0.057,-18.982,-19.287,-73.120
0.927,0.166,-0.001,-18.127,-25.146,-66.589
0.945,0.201,0.043,-14.282,-27.344,-62.134
0.956,0.214,0.075,-10.620,-26.611,-61.218
0.969,0.205,0.107,-7.446,-25.696,-62.439
0.987,0.189,0.138,-5.493,-25.635,-62.988
0.992,0.194,0.178,-4.517,-24.170,-62.073
0.993,0.183,0.197,-1.404,-20.020,-61.340
0.995,0.170,0.193,0.061,-14.954,-61.157
0.994,0.142,0.184,-0.244,-11.169,-60.852
0.997,0.118,0.180,-0.366,-8.789,-59.082
0.996,0.116,0.177,0.366,-6.958,-54.932
0.997,0.128,0.170,1.587,-4.822,-49.744
0.995,0.154,0.163,1.831,-2.319,-45.105
0.988,0.180,0.149,1.648,-0.427,-41.931
0.984,0.197,0.126,1.648,0.854,-40.527
0.973,0.212,0.114,0.244,1.587,-39.856
0.963,0.244,0.110,0.305,1.526,-39.612
0.962,0.253,0.106,1.648,0.977,-41.016
0.958,0.227,0.105,0.122,0.916,-44.495
0.959,0.175,0.109,-2.441,0.854,-47.668
0.963,0.125,0.122,-3.296,-0.244,-48.279
0.970,0.091,0.134,-2.808,-0.793,-46.326
0.972,0.085,0.142,-2.197,0.488,-42.664
0.969,0.088,0.132,-0.977,2.991,-38.940
0.975,0.085,0.104,0.732,5.981,-36.804
0.966,0.108,0.091,-0.671,7.507,-34.302
0.967,0.125,0.076,0.427,7.019,-32.959
0.965,0.140,0.065,1.587,5.859,-33.569
0.961,0.140,0.060,1.099,4.272,-35.645
0.971,0.123,0.056,0.854,2.136,-38.269
0.978,0.091,0.070,-0.732,-0.305,-40.283
0.983,0.070,0.100,-2.991,-2.319,-40.405
0.991,0.040,0.123,-2.502,-3.479,-40.466
0.998,0.022,0.139,-3.296,-3.357,-40.039
1.001,-0.002,0.142,-3.601,-2.075,-39.368
1.001,-0.014,0.137,-2.808,-0.793,-37.903
1.001,-0.014,0.121,-2.075,0.488,-35.645
1.001,-0.007,0.112,-1.221,1.038,-33.752
1.004,-0.014,0.113,-0.854,0.610,-32.776
1.000,-0.024,0.125,-0.854,-0.366,-32.227
1.001,-0.018,0.132,-0.366,-0.427,-30.762
0.997,-0.001,0.130,1.221,0.732,-28.992
0.991,0.008,0.120,2.563,2.075,-28.564
0.987,0.006,0.108,2.441,2.686,-29.663
0.984,0.000,0.102,1.160,2.014,-30.457
0.981,-0.012,0.103,0.916,0.488,-31.250
0.984,-0.029,0.100,0.061,-0.366,-31.372
0.984,-0.050,0.096,-2.014,-0.488,-30.334
0.983,-0.055,0.098,-3.113,-0.610,-27.466
0.988,-0.043,0.109,-2.747,-0.977,-24.109
0.991,-0.033,0.115,-2.014,-1.099,-21.973
0.993,-0.033,0.117,-2.930,-0.122,-21.423
1.000,-0.044,0.116,-3.784,0.793,-21.484
1.006,-0.072,0.119,-2.930,0.610,-21.362
1.006,-0.080,0.130,-4.272,0.183,-19.714
0.993,-0.064,0.145,-3.845,0.366,-17.212
1.005,-0.057,0.142,-1.892,1.892,-15.991
1.000,-0.061,0.144,-2.808,2.930,-16.541
0.994,-0.073,0.142,-3.174,4.028,-17.395
0.997,-0.080,0.133,-1.404,4.944,-17.517
0.987,-0.074,0.132,-0.122,5.249,-16.846
0.989,-0.067,0.113,0.488,6.409,-16.235
0.986,-0.081,0.096,2.319,6.958,-17.456
0.986,-0.087,0.090,1.648,5.737,-17.334
0.988,-0.105,0.095,1.526,3.479,-16.907
0.990,-0.112,0.105,0.732,1.831,-15.686
0.990,-0.109,0.113,0.183,1.282,-13.977
0.991,-0.093,0.116,-0.122,1.160,-12.024
0.991,-0.089,0.115,-0.366,1.038,-11.169
0.993,-0.090,0.124,-1.465,0.977,-11.353
0.995,-0.094,0.134,-2.197,0.366,-11.536
1.000,-0.110,0.134,-2.014,0.916,-11.658
1.000,-0.123,0.133,-2.502,2.502,-11.169
1.000,-0.137,0.128,-1.953,3.784,-9.949
0.998,-0.136,0.127,-1.038,3.967,-8.423
0.995,-0.126,0.127,0.183,3.906,-6.653
0.997,-0.117,0.121,1.038,4.211,-5.920
0.992,-0.118,0.111,0.977,4.456,-5.676
0.990,-0.125,0.096,0.183,4.395,-5.554

1.191,-1.042,0.319,-83.618,14.465,10.193
1.098,-1.608,0.339,-109.436,23.621,-5.859
0.939,-2.212,0.348,-146.118,48.218,67.810
0.773,-2.285,0.225,-149.414,78.735,196.960
0.550,-2.034,0.005,-102.661,99.609,313.843
0.288,-1.609,-0.260,-77.026,109.924,407.532
-0.013,-1.112,-0.530,-68.359,108.643,474.670
-0.237,-0.491,-0.726,-51.025,90.149,523.682
-0.362,0.154,-0.839,-13.611,58.350,550.842
-0.387,0.746,-0.871,24.780,15.259,559.509
-0.358,1.027,-0.760,49.866,-39.856,570.129
-0.230,1.729,-0.419,63.782,-96.924,549.744
-0.077,1.996,-0.046,121.033,-136.902,435.242
0.048,2.127,0.359,130.188,-147.156,322.937
0.158,2.140,0.648,108.093,-127.014,223.877
0.290,2.062,0.783,107.727,-90.210,148.437
0.342,1.965,0.824,96.130,-49.744,92.590
0.354,1.777,0.754,79.346,-11.353,44.556
0.372,1.578,0.614,68.604,16.724,8.972
0.401,1.487,0.504,62.073,26.489,-7.812
0.451,1.512,0.464,58.777,19.043,-12.268
0.510,1.577,0.488,49.805,6.226,-15.442
0.546,1.542,0.541,33.752,-1.465,-26.428
0.632,1.482,0.541,15.137,-1.160,-41.809
0.633,1.333,0.531,2.380,5.066,-57.007
0.610,1.303,0.534,-10.559,11.475,-63.721
0.621,1.266,0.486,-11.047,23.987,-72.754
0.609,1.189,0.401,-12.634,38.879,-87.646
0.590,1.075,0.314,-16.663,49.927,-104.370
0.578,0.943,0.253,-18.616,56.213,-119.446
0.577,0.801,0.198,-17.700,59.692,-131.348
0.581,0.655,0.143,-17.090,61.646,-140.442
0.594,0.529,0.095,-17.334,62.378,-145.691
0.609,0.440,0.045,-14.038,61.096,-145.935
0.631,0.372,-0.006,-8.972,58.228,-142.456
0.654,0.323,-0.059,-7.568,53.772,-137.634
0.682,0.297,-0.100,-10.925,46.753,-131.348
0.705,0.288,-0.116,-13.245,36.255,-124.512
0.727,0.286,-0.111,-12.329,25.269,-118.164
0.761,0.285,-0.091,-10.010,15.076,-113.647
0.798,0.275,-0.054,-8.362,5.737,-110.046
0.821,0.278,-0.003,-7.751,-0.427,-106.262
0.848,0.276,0.030,-5.676,-2.441,-103.027
0.865,0.270,0.047,-2.380,-2.625,-100.708
0.884,0.252,0.059,-0.732,-3.296,-98.511
0.906,0.225,0.085,0.366,-5.920,-96.924
0.919,0.205,0.126,1.587,-9.094,-94.238
0.926,0.215,0.159,4.395,-10.132,-89.478
0.946,0.231,0.176,6.592,-7.812,-84.351
0.948,0.250,0.195,5.371,-3.418,-80.627
0.948,0.232,0.191,5.005,1.465,-79.163
0.950,0.213,0.166,3.662,5.981,-78.064
0.954,0.206,0.147,2.380,7.935,-75.500
0.957,0.197,0.145,4.822,7.751,-72.632
0.961,0.177,0.142,8.240,8.118,-71.167
0.972,0.147,0.145,10.010,9.277,-69.885
0.974,0.135,0.155,10.742,9.705,-66.772
0.975,0.120,0.150,13.428,11.047,-62.744
0.977,0.111,0.126,14.099,14.160,-58.899
0.969,0.116,0.098,13.000,17.029,-54.443
0.964,0.136,0.079,13.916,16.785,-50.110
0.957,0.163,0.072,15.076,13.794,-46.692
0.958,0.180,0.067,13.733,10.681,-45.349
0.960,0.178,0.079,11.292,7.751,-45.654
0.958,0.161,0.095,8.301,6.287,-46.265
0.955,0.136,0.094,6.104,7.874,-46.265
0.953,0.102,0.082,6.531,9.888,-46.143
0.958,0.070,0.071,6.470,9.949,-44.678
0.966,0.060,0.082,4.822,7.568,-41.809
0.970,0.079,0.096,4.150,5.249,-37.354
0.976,0.101,0.095,6.226,5.127,-34.607
0.976,0.119,0.086,6.531,5.920,-34.058
0.984,0.118,0.075,5.676,5.859,-35.339
0.991,0.084,0.075,3.967,4.822,-36.987
0.991,0.062,0.092,0.793,3.479,-37.048
1.000,0.030,0.106,2.502,2.563,-36.316
1.001,0.009,0.116,2.930,2.258,-34.546
1.003,-0.003,0.122,1.404,2.930,-32.227
1.003,-0.013,0.123,1.892,3.601,-29.480
1.000,-0.010,0.114,2.441,4.639,-26.428
1.000,0.001,0.105,2.136,5.798,-23.621
0.992,0.022,0.095,3.418,6.470,-21.301
0.990,0.033,0.087,4.761,6.470,-20.081
0.983,0.040,0.084,5.005,6.165,-20.081
0.989,0.022,0.072,5.005,6.226,-21.179
0.985,0.021,0.080,3.113,5.493,-21.057
0.994,0.012,0.095,2.991,3.235,-20.508
0.997,0.000,0.110,2.075,1.770,-20.020
1.000,-0.010,0.111,0.061,2.747,-19.470
1.001,-0.024,0.106,0.122,4.028,-18.738
1.002,-0.033,0.102,0.183,4.517,-17.029
1.002,-0.030,0.103,-0.305,4.333,-14.587
1.001,-0.031,0.100,0.183,4.272,-12.634
0.999,-0.017,0.096,0.061,4.639,-10.620
1.000,-0.007,0.082,0.977,5.066,-9.033
0.998,-0.001,0.077,1.038,4.333,-8.545
0.997,0.002,0.082,0.549,3.052,-8.240
1.000,-0.002,0.092,1.038,1.587,-8.484
0.997,-0.006,0.105,0.305,0.916,-8.240
0.996,-0.000,0.114,0.061,1.465,-7.629
0.997,0.007,0.115,1.221,2.747,-7.324
0.998,0.015,0.110,2.136,4.089,-7.629
0.992,0.013,0.098,2.747,5.249,-8.545
0.990,0.006,0.083,3.723,5.615,-9.705
0.992,0.000,0.080,4.028,4.517,-10.315
0.994,-0.016,0.088,4.089,2.869,-10.620
0.996,-0.029,0.100,3.113,1.404,-10.193
1.000,-0.028,0.105,2.075,1.282,-8.667
0.990,-0.022,0.097,1.465,1.831,-6.958
1.000,-0.002,0.088,-0.427,2.075,-5.493
0.994,0.002,0.110,-0.793,0.732,-5.798
0.991,0.005,0.110,0.488,1.648,-7.385
0.997,-0.003,0.100,1.587,3.418,-8.911
0.994,-0.021,0.099,1.526,3.357,-10.620
0.998,-0.041,0.098,2.014,2.747,-11.475
1.000,-0.061,0.093,2.625,2.869,-11.047
0.999,-0.064,0.087,1.831,3.052,-9.277
1.000,-0.063,0.076,1.343,3.174,-7.080
1.000,-0.059,0.072,0.488,2.563,-5.371

1.145,-0.867,0.350,11.841,13.611,1.221
1.156,-1.169,0.378,13.855,21.301,10.315
1.043,-1.597,0.366,-0.854,34.912,48.096
0.912,-1.847,0.295,-25.757,55.542,140.076
0.732,-1.815,0.146,-32.715,75.439,237.732
0.516,-1.545,-0.040,-22.644,88.135,324.463
0.334,-1.198,-0.279,-16.602,92.529,395.386
0.150,-0.755,-0.497,-19.897,84.290,447.815
0.003,-0.285,-0.677,-19.836,68.970,480.286
-0.105,0.202,-0.818,-1.709,45.715,495.117
-0.165,0.619,-0.900,18.005,14.709,501.831
-0.214,0.884,-0.851,17.151,-27.588,510.376
-0.220,1.265,-0.650,15.381,-77.393,511.292
-0.158,1.705,-0.436,31.494,-116.821,447.815
-0.128,1.841,-0.194,24.841,-140.381,363.037
-0.060,1.929,0.076,-9.399,-149.292,290.222
0.014,1.937,0.344,-6.042,-148.621,228.088
0.079,1.943,0.572,13.733,-135.681,175.842
0.119,1.918,0.693,25.696,-106.384,126.831
0.161,1.839,0.662,31.799,-65.369,79.651
0.207,1.733,0.534,33.203,-31.128,42.419
0.244,1.675,0.448,29.724,-17.944,19.287
0.290,1.658,0.442,26.245,-21.545,5.310
0.339,1.649,0.493,19.897,-28.687,-5.188
0.407,1.610,0.542,10.071,-30.029,-18.677
0.392,1.570,0.578,1.465,-23.865,-32.104
0.458,1.490,0.537,-2.991,-9.949,-46.753
0.461,1.461,0.484,-9.521,4.700,-60.059
0.467,1.443,0.399,-13.245,19.775,-74.341
0.456,1.361,0.299,-11.475,34.607,-95.154
0.444,1.216,0.198,-14.221,45.654,-117.981
0.447,1.048,0.101,-19.531,51.331,-137.390
0.451,0.871,0.024,-21.484,50.903,-152.100
0.463,0.696,-0.024,-19.897,46.265,-161.621
0.489,0.552,-0.039,-18.372,39.307,-164.368
0.529,0.446,-0.044,-13.062,31.921,-161.377
0.567,0.380,-0.045,-7.690,25.879,-154.175
0.603,0.363,-0.053,-4.333,21.240,-144.958
0.647,0.374,-0.079,-1.953,17.151,-135.559
0.690,0.381,-0.098,-2.869,11.353,-127.991
0.707,0.409,-0.093,-7.812,3.357,-121.887
0.728,0.436,-0.083,-9.277,-4.456,-117.004
0.753,0.461,-0.058,-9.460,-13.245,-114.502
0.765,0.464,-0.022,-8.789,-21.606,-114.685
0.787,0.441,0.034,-7.690,-28.442,-116.516
0.819,0.393,0.101,-7.019,-34.546,-118.652
0.843,0.334,0.183,-6.714,-37.720,-119.507
0.868,0.283,0.257,-4.456,-35.645,-118.225
0.878,0.255,0.293,2.991,-27.771,-114.502
0.899,0.261,0.285,10.498,-15.869,-108.032
0.910,0.285,0.261,15.198,-4.639,-101.440
0.908,0.310,0.229,19.775,2.991,-97.168
0.911,0.327,0.196,23.560,7.996,-95.032
0.916,0.324,0.172,24.414,9.094,-94.543
0.921,0.291,0.161,23.865,8.301,-94.849
0.923,0.272,0.169,21.790,7.263,-93.628
0.932,0.271,0.178,20.752,7.141,-90.393
0.941,0.261,0.179,21.545,8.606,-87.769
0.945,0.242,0.174,18.677,11.536,-85.754
0.942,0.213,0.162,15.137,14.404,-83.618
0.938,0.200,0.147,13.184,16.785,-80.261
0.940,0.177,0.122,14.282,18.311,-77.209
0.941,0.159,0.103,14.648,17.883,-74.646
0.939,0.141,0.089,14.282,15.564,-71.655
0.940,0.126,0.082,13.367,13.000,-68.298
0.943,0.118,0.088,12.634,10.498,-64.941
0.943,0.103,0.088,13.123,8.545,-61.523
0.943,0.110,0.090,10.437,8.240,-57.190
0.948,0.111,0.088,9.644,7.812,-53.711
0.949,0.110,0.088,10.132,7.202,-51.941
0.956,0.105,0.090,9.399,6.165,-50.415
0.965,0.101,0.094,9.033,4.639,-49.377
0.973,0.095,0.093,7.751,3.601,-48.584
0.978,0.081,0.094,6.409,3.113,-47.852
0.986,0.066,0.106,4.883,2.197,-47.058
0.993,0.048,0.129,5.737,0.610,-46.082
1.001,0.027,0.146,8.850,-0.183,-44.922
1.002,0.008,0.157,10.681,0.305,-43.152
1.006,-0.008,0.160,12.817,1.465,-40.833
1.006,-0.009,0.161,12.329,2.808,-37.048
1.007,0.004,0.156,11.597,4.822,-32.471
1.001,0.009,0.143,11.230,7.080,-28.809
0.991,0.045,0.136,9.521,9.216,-25.818
0.982,0.080,0.118,11.353,10.559,-23.926
0.982,0.103,0.108,12.207,10.620,-24.658
0.977,0.090,0.113,9.949,8.911,-27.649
0.979,0.058,0.126,7.629,7.019,-30.579
0.980,0.032,0.129,6.470,6.409,-31.555
0.985,0.013,0.120,6.348,7.751,-31.128
0.981,0.005,0.106,6.470,9.155,-29.724
0.986,-0.009,0.090,6.348,8.789,-28.381
0.990,-0.032,0.086,4.883,6.958,-27.344
0.993,-0.043,0.091,2.686,5.310,-24.963
0.996,-0.040,0.100,2.808,3.906,-21.790
0.998,-0.029,0.106,4.639,3.479,-19.165
0.996,-0.025,0.103,4.639,3.967,-17.517
0.996,-0.028,0.095,2.380,4.944,-16.663
0.996,-0.038,0.096,0.854,4.272,-15.808
0.992,-0.042,0.108,0.916,2.380,-14.893
0.993,-0.033,0.115,1.221,1.587,-13.062
0.993,-0.030,0.114,1.160,2.014,-11.658
0.991,-0.015,0.114,-0.732,2.563,-10.559
0.993,-0.016,0.118,-0.671,2.441,-10.376
0.992,-0.017,0.128,-0.061,2.014,-11.108
0.994,-0.016,0.132,0.793,2.808,-11.536
0.993,-0.020,0.123,3.662,3.967,-11.963
0.992,-0.016,0.114,4.883,5.005,-12.268
0.993,-0.024,0.105,5.981,5.188,-12.878
0.995,-0.036,0.105,5.493,4.211,-13.489
0.997,-0.047,0.114,4.150,2.502,-13.367
1.000,-0.063,0.116,3.540,1.587,-12.817
1.000,-0.076,0.116,1.404,1.526,-11.658
0.999,-0.069,0.117,-1.343,1.831,-9.094
1.000,-0.062,0.117,-1.282,2.014,-7.141
0.998,-0.061,0.120,-0.488,1.648,-6.226
0.999,-0.051,0.128,-0.061,2.014,-5.371
0.999,-0.049,0.132,2.930,2.991,-5.432
0.999,-0.046,0.130,6.042,3.967,-5.981
1.000,-0.049,0.119,6.165,4.944,-6.470

1.212,-0.874,0.375,-66.467,6.775,15.503
1.170,-1.192,0.396,-97.839,17.700,9.766
1.001,-1.690,0.336,-129.211,39.673,47.607
0.882,-1.795,0.234,-148.865,67.932,155.823
0.696,-1.579,0.048,-113.708,88.318,257.141
0.539,-1.113,-0.197,-66.223,102.661,338.562
0.378,-0.580,-0.429,-31.250,104.309,391.785
0.290,-0.154,-0.619,-5.554,87.769,412.537
0.219,0.110,-0.751,10.986,57.068,410.645
0.161,0.304,-0.776,9.338,18.066,398.376
0.117,0.458,-0.713,6.958,-23.376,383.423
0.039,0.590,-0.547,17.090,-63.354,376.709
0.038,0.756,-0.328,28.870,-95.093,389.404
0.072,1.097,-0.072,42.236,-114.441,386.292
0.119,1.454,0.149,67.688,-117.981,332.520
0.170,1.641,0.304,83.435,-106.873,267.395
0.237,1.782,0.394,74.341,-87.158,212.585
0.281,1.847,0.438,70.984,-65.552,160.828
0.307,1.841,0.446,71.899,-46.814,113.708
0.346,1.784,0.437,65.613,-33.325,72.083
0.381,1.662,0.436,55.115,-26.611,36.438
0.422,1.581,0.469,45.288,-27.649,12.390
0.482,1.576,0.517,39.124,-30.701,0.244
0.525,1.578,0.567,32.043,-30.701,-9.094
0.511,1.523,0.607,17.517,-26.001,-24.353
0.641,1.421,0.568,3.113,-15.686,-42.908
0.629,1.307,0.550,-4.456,-4.761,-59.326
0.623,1.258,0.524,-10.681,4.089,-69.641
0.630,1.178,0.469,-8.850,16.052,-82.520
0.622,1.058,0.392,-10.803,28.381,-99.365
0.614,0.916,0.311,-13.367,38.208,-114.380
0.612,0.771,0.242,-11.658,44.189,-124.939
0.612,0.652,0.197,-7.568,46.692,-130.432
0.622,0.548,0.160,-3.235,47.791,-132.080
0.638,0.470,0.121,-2.319,48.279,-131.042
0.653,0.394,0.071,-0.610,48.706,-129.456
0.675,0.339,0.023,3.540,47.241,-125.977
0.700,0.312,-0.011,8.423,42.969,-119.812
0.723,0.312,-0.031,11.719,35.950,-112.061
0.754,0.335,-0.045,12.390,28.503,-104.980
0.780,0.353,-0.053,12.512,20.874,-99.670
0.814,0.345,-0.035,9.705,12.329,-96.191
0.837,0.338,0.019,3.235,3.235,-93.140
0.855,0.316,0.075,-0.427,-3.113,-90.210
0.873,0.305,0.124,-2.136,-6.226,-86.853
0.893,0.293,0.160,-2.502,-7.385,-82.886
0.908,0.259,0.188,-3.967,-6.470,-79.590
0.909,0.241,0.214,-5.981,-3.662,-75.867
0.909,0.236,0.218,-0.793,0.000,-70.679
0.920,0.264,0.208,6.165,3.723,-64.758
0.918,0.284,0.195,11.902,6.470,-60.852
0.914,0.314,0.193,14.709,8.789,-58.716
0.912,0.355,0.188,17.761,11.169,-57.129
0.911,0.390,0.180,22.827,13.306,-57.007
0.917,0.392,0.172,24.048,14.709,-59.387
0.916,0.367,0.170,20.081,15.137,-63.232
0.916,0.335,0.164,15.381,15.137,-65.430
0.924,0.306,0.155,12.146,15.137,-65.430
0.927,0.278,0.156,9.766,14.526,-64.209
0.932,0.257,0.163,7.568,13.489,-62.012
0.936,0.241,0.167,7.324,13.611,-59.631
0.939,0.229,0.162,8.667,15.076,-57.434
0.943,0.221,0.144,10.925,17.212,-55.359
0.937,0.219,0.123,11.963,18.677,-53.284
0.934,0.212,0.101,13.000,18.372,-51.941
0.931,0.211,0.091,13.000,16.846,-50.537
0.931,0.234,0.097,12.085,14.709,-48.706
0.929,0.253,0.106,13.855,12.695,-48.035
0.931,0.266,0.111,13.428,12.024,-49.622
0.937,0.250,0.113,11.719,11.780,-52.856
0.944,0.208,0.111,11.230,11.230,-56.885
0.956,0.151,0.109,9.766,10.498,-59.143
0.963,0.117,0.117,7.751,9.888,-58.716
0.967,0.099,0.122,9.583,9.705,-56.152
0.975,0.097,0.119,12.817,10.498,-53.406
0.981,0.100,0.112,13.916,11.658,-51.147
0.984,0.086,0.107,13.306,11.597,-49.988
0.990,0.063,0.109,10.315,10.498,-49.438
0.987,0.044,0.116,7.568,9.644,-47.546
0.986,0.039,0.121,7.935,9.521,-44.556
0.985,0.051,0.124,8.057,10.376,-41.321
0.983,0.063,0.115,8.301,11.780,-39.246
0.981,0.067,0.102,8.179,12.756,-38.635
0.976,0.057,0.092,6.470,12.451,-38.940
0.976,0.040,0.085,5.249,11.353,-38.818
0.977,0.026,0.089,5.066,9.644,-38.330
0.984,0.008,0.097,6.348,7.935,-37.537
0.986,-0.002,0.109,8.179,6.775,-36.438
0.991,-0.005,0.118,10.132,7.019,-35.034
0.996,-0.011,0.115,12.451,8.118,-33.447
0.994,-0.008,0.107,12.146,9.216,-31.738
0.997,-0.004,0.093,9.705,10.437,-29.663
0.997,-0.008,0.085,7.751,10.620,-27.954
0.998,-0.020,0.081,5.005,9.521,-26.733
0.997,-0.032,0.083,3.723,8.179,-25.452
1.000,-0.042,0.095,2.747,6.348,-23.682
1.000,-0.044,0.115,2.930,4.456,-22.156
1.000,-0.038,0.129,2.930,4.578,-20.325
0.998,-0.025,0.125,3.784,6.714,-18.921
0.998,-0.027,0.099,3.784,9.277,-18.738
0.991,-0.032,0.078,1.953,10.620,-18.921
0.993,-0.043,0.067,1.404,9.094,-18.555
0.992,-0.047,0.072,1.953,6.104,-17.822
0.993,-0.046,0.083,1.526,4.333,-16.724
0.996,-0.056,0.089,1.526,3.845,-15.930
0.994,-0.060,0.098,0.183,3.723,-14.771
0.995,-0.055,0.104,0.610,3.906,-13.306
0.998,-0.051,0.104,2.197,4.211,-12.146
0.998,-0.047,0.097,2.319,5.005,-11.597
0.992,-0.039,0.086,2.197,5.737,-11.292
0.991,-0.029,0.077,2.869,5.554,-11.169
0.996,-0.035,0.078,3.235,4.333,-11.536
0.992,-0.034,0.095,1.709,2.808,-12.085
0.997,-0.042,0.109,3.235,2.319,-12.695
1.000,-0.052,0.117,4.272,2.747,-13.367
1.000,-0.065,0.116,2.808,3.906,-13.489
1.002,-0.078,0.103,0.793,5.310,-12.817
1.001,-0.097,0.094,0.061,6.104,-12.329
1.001,-0.107,0.085,0.122,5.798,-10.437

1.201,-0.948,0.376,-29.175,10.071,17.883
1.127,-1.313,0.378,-34.729,21.667,8.423
0.935,-1.741,0.299,-62.317,47.729,67.383
0.828,-1.666,0.100,-71.350,76.294,182.190
0.705,-1.386,-0.156,-33.203,87.219,276.001
0.549,-1.022,-0.355,-29.907,82.886,340.820
0.434,-0.774,-0.571,-48.157,68.604,376.099
0.322,-0.553,-0.741,-60.974,40.527,399.292
0.220,-0.330,-0.818,-68.909,4.211,417.114
0.106,-0.058,-0.790,-66.711,-31.738,428.345
0.023,0.252,-0.669,-48.645,-67.078,432.312
-0.071,0.582,-0.448,-17.822,-97.717,433.167
-0.137,0.852,-0.182,17.456,-119.019,455.139
-0.040,1.561,0.129,56.091,-128.784,459.778
0.079,2.003,0.394,114.380,-127.808,372.437
0.161,2.163,0.580,115.479,-106.995,270.081
0.246,2.114,0.620,82.336,-69.458,179.687
0.285,1.953,0.573,74.219,-34.851,111.206
0.292,1.849,0.496,65.491,-10.925,69.458
0.296,1.724,0.393,54.626,2.319,37.903
0.316,1.595,0.304,41.504,5.554,13.062
0.363,1.508,0.288,31.860,-3.967,-0.061
0.443,1.458,0.375,23.071,-22.949,-6.348
0.530,1.400,0.512,12.329,-37.903,-13.000
0.545,1.361,0.629,2.380,-39.856,-20.569
0.580,1.272,0.644,-2.014,-26.184,-29.236
0.566,1.266,0.622,-9.644,-7.629,-36.011
0.581,1.250,0.534,-8.972,12.573,-45.288
0.572,1.203,0.428,-5.676,31.799,-60.852
0.556,1.108,0.316,-4.639,46.570,-78.796
0.552,1.005,0.218,-3.235,56.458,-94.727
0.535,0.887,0.139,-1.526,60.730,-107.544
0.537,0.782,0.062,-1.282,62.805,-117.004
0.551,0.692,-0.014,-2.686,61.768,-122.253
0.564,0.617,-0.062,-4.883,54.993,-124.329
0.587,0.566,-0.081,-6.897,45.410,-124.573
0.617,0.538,-0.084,-7.263,35.339,-123.047
0.646,0.516,-0.075,-7.812,25.208,-121.399
0.682,0.486,-0.056,-9.888,14.648,-120.972
0.726,0.426,-0.028,-11.841,4.639,-121.277
0.758,0.360,0.028,-14.221,-4.517,-120.728
0.792,0.314,0.092,-14.526,-11.169,-117.859
0.826,0.280,0.137,-9.094,-13.367,-112.915
0.848,0.285,0.169,-5.432,-12.085,-106.262
0.860,0.334,0.186,-2.075,-8.728,-99.060
0.857,0.377,0.190,3.967,-5.005,-94.971
0.867,0.402,0.197,7.568,-2.014,-95.154
0.877,0.375,0.209,8.789,-0.977,-98.328
0.880,0.345,0.222,8.545,-0.061,-100.647
0.895,0.320,0.226,11.169,1.831,-100.098
0.906,0.310,0.233,13.245,4.028,-97.839
0.910,0.302,0.236,13.794,7.202,-95.764
0.919,0.268,0.224,15.381,10.681,-94.788
0.924,0.244,0.213,14.160,12.634,-93.262
0.934,0.240,0.205,13.000,13.855,-89.478
0.936,0.233,0.192,14.771,15.564,-85.815
0.942,0.224,0.170,14.343,17.944,-83.130
0.940,0.208,0.152,11.292,18.921,-80.750
0.940,0.188,0.133,9.277,18.799,-78.369
0.939,0.169,0.114,7.935,18.494,-75.562
0.933,0.157,0.103,7.141,17.273,-72.327
0.929,0.153,0.096,6.775,15.930,-68.726
0.931,0.145,0.090,7.507,14.160,-65.857
0.930,0.141,0.101,7.446,12.085,-63.110
0.938,0.134,0.116,7.446,10.559,-60.974
0.945,0.121,0.122,9.094,10.254,-59.509
0.951,0.110,0.115,9.521,11.414,-57.922
0.955,0.110,0.104,10.132,12.512,-55.847
0.959,0.108,0.086,11.597,12.878,-53.650
0.965,0.098,0.084,9.399,11.536,-52.185
0.970,0.086,0.105,5.615,8.118,-51.331
0.977,0.081,0.127,4.700,5.676,-49.927
0.983,0.083,0.141,6.348,5.554,-48.523
0.989,0.075,0.137,6.226,7.141,-47.607
0.989,0.053,0.126,4.578,8.850,-47.668
0.990,0.038,0.122,3.235,9.583,-46.753
0.994,0.022,0.126,4.639,8.789,-45.044
0.994,0.023,0.141,5.371,8.240,-42.725
0.989,0.036,0.145,7.141,8.972,-40.466
0.983,0.058,0.130,9.888,10.925,-39.001
0.983,0.074,0.111,10.803,12.268,-38.818
0.977,0.071,0.097,10.742,11.841,-40.649
0.975,0.057,0.098,10.376,10.498,-42.847
0.977,0.050,0.113,10.132,8.301,-44.067
0.974,0.040,0.121,10.254,7.690,-44.617
0.973,0.035,0.113,9.033,9.399,-44.922
0.970,0.031,0.099,7.446,10.986,-45.593
0.973,0.006,0.088,6.287,10.620,-46.753
0.974,-0.020,0.090,3.906,8.972,-47.668
0.978,-0.043,0.094,2.808,7.446,-47.302
0.983,-0.068,0.098,4.395,6.348,-46.814
0.983,-0.081,0.096,6.165,5.798,-45.776
0.986,-0.095,0.095,8.972,6.165,-44.617
0.987,-0.112,0.097,12.329,6.470,-43.945
0.990,-0.124,0.104,16.296,6.409,-43.396
1.000,-0.148,0.109,22.034,6.470,-42.725
0.996,-0.160,0.105,25.024,7.629,-41.138
1.006,-0.165,0.110,27.832,8.301,-38.391
1.000,-0.166,0.131,30.212,9.033,-35.706
1.000,-0.137,0.133,30.884,12.024,-32.288
1.000,-0.114,0.115,32.043,15.442,-29.846
0.999,-0.110,0.089,29.846,17.395,-29.541
0.995,-0.131,0.070,24.292,17.212,-30.273
0.993,-0.154,0.059,18.250,14.832,-29.724
0.992,-0.171,0.061,13.000,11.658,-27.649
0.995,-0.183,0.068,8.606,8.606,-25.024
0.996,-0.199,0.075,4.944,6.409,-22.583
0.992,-0.208,0.072,1.221,5.798,-19.653
0.991,-0.210,0.066,-0.793,5.188,-16.357
0.989,-0.198,0.065,-1.404,4.028,-13.062
0.989,-0.182,0.075,-0.427,2.319,-10.681
0.990,-0.156,0.091,1.343,1.770,-9.033
0.991,-0.145,0.091,4.456,2.747,-8.972
0.986,-0.133,0.086,5.127,5.188,-10.132
0.985,-0.132,0.079,6.531,6.531,-11.475
0.984,-0.141,0.074,9.521,6.042,-13.367
0.983,-0.151,0.072,8.789,5.493,-14.526
0.984,-0.172,0.068,7.263,4.944,-15.259
0.988,-0.193,0.072,3.601,3.601,-14.648

1.171,-1.017,0.280,-26.794,3.723,-9.766
1.103,-1.370,0.304,-47.302,13.245,-15.076
1.010,-1.958,0.265,-73.486,28.320,43.396
0.892,-2.009,0.193,-88.989,47.607,155.518
0.705,-1.696,0.040,-66.528,61.707,256.836
0.622,-1.224,-0.182,-48.340,72.876,337.769
0.470,-0.813,-0.363,-58.228,70.129,383.484
0.377,-0.481,-0.545,-78.308,57.434,404.114
0.289,-0.109,-0.638,-78.735,35.706,416.321
0.230,0.265,-0.603,-60.303,2.869,420.715
0.221,0.455,-0.500,-35.522,-30.945,418.396
0.208,0.613,-0.289,-29.236,-61.646,422.180
0.241,0.894,-0.054,-11.658,-79.651,400.208
0.265,1.169,0.119,29.419,-78.186,345.337
0.291,1.317,0.196,55.298,-63.660,279.480
0.331,1.421,0.235,59.875,-48.157,227.295
0.385,1.513,0.292,63.660,-37.964,184.692
0.424,1.577,0.335,72.021,-29.785,146.484
0.460,1.628,0.324,72.205,-17.395,111.938
0.485,1.595,0.249,67.261,-6.165,77.271
0.506,1.518,0.173,57.617,-4.028,46.082
0.547,1.458,0.171,47.485,-15.503,24.597
0.590,1.431,0.249,37.903,-34.180,11.414
0.624,1.456,0.363,24.231,-47.913,2.136
0.651,1.439,0.464,12.878,-51.758,-10.437
0.668,1.358,0.518,1.892,-44.739,-28.687
0.671,1.243,0.528,-5.615,-31.250,-46.265
0.646,1.137,0.516,-7.874,-15.991,-60.608
0.675,1.039,0.454,-6.897,1.587,-73.608
0.646,0.958,0.381,-6.653,19.470,-85.327
0.643,0.910,0.276,-4.578,34.119,-93.811
0.634,0.838,0.168,-0.427,45.715,-103.760
0.629,0.745,0.073,-0.854,50.537,-114.563
0.642,0.638,0.016,-2.258,48.401,-122.864
0.662,0.523,0.004,-2.563,40.283,-127.502
0.688,0.456,0.009,-3.418,33.691,-127.686
0.721,0.392,0.002,-1.587,29.297,-126.343
0.756,0.341,-0.009,-2.136,25.269,-123.840
0.788,0.297,-0.021,-3.174,20.630,-120.850
0.812,0.267,-0.020,-2.747,14.893,-117.310
0.834,0.258,-0.004,-1.099,8.484,-113.586
0.858,0.258,0.014,1.892,2.502,-110.535
0.875,0.251,0.040,3.296,-2.258,-109.131
0.882,0.231,0.075,2.014,-5.737,-108.215
0.901,0.193,0.114,1.587,-7.935,-106.812
0.916,0.161,0.153,-0.183,-8.606,-103.516
0.930,0.122,0.183,-1.160,-7.263,-99.487
0.941,0.107,0.208,-1.648,-4.150,-94.788
0.944,0.107,0.208,2.258,0.366,-89.478
0.951,0.121,0.180,7.507,6.226,-84.412
0.952,0.136,0.146,9.888,10.315,-80.688
0.956,0.134,0.125,12.451,10.498,-78.735
0.962,0.125,0.127,13.550,7.996,-77.332
0.967,0.111,0.142,13.977,5.066,-75.623
0.974,0.089,0.162,14.832,3.967,-74.036
0.979,0.068,0.178,13.489,4.089,-71.655
0.988,0.048,0.182,13.550,5.493,-68.481
0.985,0.038,0.177,13.489,8.118,-63.782
0.979,0.052,0.162,12.695,10.925,-58.533
0.974,0.070,0.143,14.160,13.062,-54.199
0.976,0.075,0.127,16.113,13.550,-51.880
0.973,0.071,0.117,16.724,12.939,-50.598
0.968,0.068,0.112,16.663,12.573,-48.950
0.968,0.074,0.113,17.822,12.085,-47.180
0.971,0.083,0.119,17.883,10.559,-45.715
0.974,0.085,0.128,16.235,9.338,-45.349
0.967,0.083,0.134,13.184,9.705,-45.654
0.969,0.083,0.130,12.085,10.742,-46.143
0.970,0.075,0.122,12.024,11.536,-46.753
0.973,0.041,0.107,12.573,11.719,-48.340
0.976,0.005,0.101,11.719,11.169,-49.316
0.980,-0.016,0.103,12.329,9.827,-48.401
0.987,-0.016,0.109,13.977,8.240,-45.898
0.994,-0.016,0.111,14.282,7.507,-43.579
0.992,-0.025,0.112,12.817,7.385,-42.603
1.000,-0.035,0.120,11.047,6.958,-41.687
1.000,-0.050,0.135,10.193,5.798,-40.833
1.000,-0.065,0.144,8.789,6.165,-39.917
1.000,-0.069,0.142,7.568,8.667,-38.086
1.000,-0.078,0.131,9.644,10.315,-36.621
0.996,-0.075,0.123,9.888,11.230,-35.339
0.993,-0.067,0.111,10.193,11.597,-33.936
0.989,-0.065,0.101,10.620,11.108,-33.325
0.986,-0.073,0.096,9.338,10.376,-33.447
0.986,-0.091,0.094,7.507,9.460,-33.630
0.985,-0.105,0.100,6.531,8.301,-33.264
0.986,-0.120,0.097,6.531,7.690,-32.349
0.985,-0.142,0.083,5.127,8.301,-30.823
0.980,-0.128,0.081,1.770,8.545,-28.015
0.980,-0.121,0.077,3.296,7.385,-25.574
0.978,-0.113,0.074,3.906,6.287,-24.414
0.982,-0.112,0.076,3.296,5.676,-24.536
0.981,-0.115,0.082,4.395,4.822,-24.902
0.981,-0.117,0.089,6.531,4.333,-24.902
0.990,-0.127,0.097,8.545,4.089,-25.391
0.992,-0.139,0.111,9.949,4.395,-25.757
0.996,-0.152,0.119,12.146,5.127,-25.635
0.997,-0.157,0.119,13.489,6.226,-24.841
0.998,-0.166,0.108,13.184,7.568,-23.926
0.997,-0.188,0.089,11.536,8.057,-23.315
0.992,-0.193,0.084,7.751,7.751,-21.240
0.991,-0.186,0.084,5.432,6.165,-17.822
0.992,-0.177,0.091,4.333,4.456,-15.137
0.994,-0.177,0.098,1.099,3.601,-13.611
1.000,-0.196,0.106,-1.099,2.991,-13.062
0.994,-0.212,0.117,-2.258,2.747,-11.841
0.994,-0.208,0.120,-2.319,3.662,-9.338
0.991,-0.190,0.107,-0.488,5.615,-6.653
0.987,-0.171,0.090,1.343,7.019,-5.676
0.982,-0.157,0.076,2.319,7.141,-6.104
0.982,-0.162,0.068,3.235,6.104,-7.385
0.980,-0.169,0.065,3.052,4.578,-8.545
0.983,-0.181,0.069,2.441,3.296,-8.789
0.982,-0.194,0.079,1.587,2.258,-8.484
0.984,-0.198,0.091,-0.061,1.343,-7.141
0.985,-0.194,0.101,-0.305,0.977,-5.676
0.991,-0.193,0.113,-0.366,1.038,-4.578
0.992,-0.201,0.119,-0.549,1.648,-4.150
0.994,-0.207,0.112,-1.526,3.174,-3.357

1.140,-0.818,0.354,-4.272,12.756,8.667
1.144,-1.121,0.393,-6.897,23.193,5.981
1.122,-1.625,0.361,-25.452,36.011,23.010
1.001,-1.945,0.348,-71.838,49.683,101.624
0.850,-1.986,0.193,-103.149,70.801,200.684
0.652,-1.674,-0.087,-124.084,96.863,291.992
0.579,-1.368,-0.468,-139.282,111.816,358.582
0.366,-1.021,-0.742,-168.274,107.666,405.151
0.179,-0.556,-0.922,-166.504,79.163,451.172
0.079,0.070,-0.925,-129.761,34.851,479.675
0.032,0.579,-0.837,-72.388,-8.423,479.065
0.010,0.782,-0.686,-25.208,-53.162,474.976
0.110,1.245,-0.419,-8.850,-93.323,466.370
0.196,1.486,-0.136,34.485,-118.225,374.207
0.236,1.419,0.108,51.819,-117.493,269.043
0.270,1.360,0.264,35.645,-97.839,205.017
0.328,1.421,0.333,58.899,-73.242,168.701
0.383,1.562,0.358,86.792,-49.805,140.259
0.433,1.610,0.341,94.849,-28.992,104.675
0.478,1.517,0.280,90.759,-11.414,63.904
0.504,1.361,0.203,80.444,-1.465,31.250
0.546,1.245,0.162,72.266,-2.258,13.550
0.591,1.240,0.203,64.819,-13.306,8.728
0.641,1.290,0.285,56.213,-26.611,7.935
0.688,1.321,0.379,43.518,-33.752,2.075
0.705,1.337,0.463,28.320,-33.142,-6.042
0.687,1.296,0.507,18.250,-24.414,-18.433
0.717,1.272,0.488,9.216,-9.888,-31.860
0.700,1.192,0.430,5.005,6.592,-47.791
0.679,1.129,0.370,0.122,19.836,-62.439
0.680,1.021,0.270,2.563,32.471,-78.125
0.659,0.902,0.182,3.479,40.588,-93.811
0.660,0.782,0.106,4.211,44.556,-106.384
0.651,0.660,0.060,6.226,43.579,-115.173
0.661,0.556,0.026,7.751,40.283,-120.605
0.680,0.468,-0.009,7.812,37.292,-122.375
0.709,0.376,-0.032,6.897,32.471,-121.216
0.740,0.299,-0.026,3.479,24.963,-117.554
0.774,0.256,-0.003,0.916,17.395,-111.450
0.806,0.267,0.022,1.892,12.146,-103.149
0.831,0.315,0.036,3.845,9.094,-94.971
0.849,0.349,0.029,4.517,7.874,-91.370
0.861,0.353,0.018,2.930,6.470,-92.163
0.869,0.339,0.029,2.014,2.930,-94.299
0.880,0.325,0.067,3.723,-2.014,-96.130
0.893,0.302,0.118,6.958,-6.836,-98.022
0.901,0.278,0.172,7.141,-9.277,-99.304
0.912,0.301,0.217,9.033,-8.423,-99.182
0.929,0.266,0.226,18.494,-4.578,-100.952
0.930,0.258,0.240,15.015,0.732,-102.234
0.928,0.216,0.224,16.663,6.897,-103.760
0.931,0.187,0.194,21.606,12.146,-103.699
0.935,0.171,0.169,23.071,14.709,-101.929
0.941,0.149,0.151,25.146,14.893,-100.098
0.943,0.124,0.144,24.658,13.306,-97.961
0.950,0.105,0.143,22.644,11.475,-95.398
0.966,0.086,0.146,22.217,10.254,-92.285
0.970,0.072,0.157,22.583,9.827,-88.135
0.975,0.058,0.157,21.301,10.986,-83.923
0.969,0.041,0.144,18.250,13.367,-80.261
0.974,0.015,0.120,14.954,14.954,-76.660
0.972,-0.002,0.112,11.353,14.343,-72.510
0.967,-0.006,0.112,8.606,13.367,-67.627
0.968,-0.009,0.107,8.789,12.756,-62.927
0.965,-0.003,0.104,8.423,12.634,-59.143
0.965,-0.008,0.098,9.277,12.268,-57.129
0.963,-0.012,0.088,10.193,11.780,-55.725
0.967,-0.009,0.085,11.475,10.803,-54.199
0.971,-0.014,0.083,13.306,8.545,-52.979
0.970,-0.022,0.092,11.475,7.568,-52.185
0.978,-0.036,0.105,9.033,6.653,-51.392
0.984,-0.053,0.119,10.742,5.432,-50.842
0.991,-0.052,0.133,12.085,5.188,-49.500
0.996,-0.053,0.135,14.587,6.531,-48.096
0.998,-0.068,0.128,16.113,7.935,-47.668
1.001,-0.075,0.127,14.771,8.850,-46.814
1.001,-0.090,0.126,15.259,8.789,-45.898
1.001,-0.111,0.118,14.954,8.911,-45.044
1.001,-0.125,0.115,12.756,8.728,-43.518
0.997,-0.137,0.115,12.207,7.812,-41.626
0.997,-0.133,0.112,12.695,6.897,-38.879
0.993,-0.134,0.107,11.230,6.226,-36.072
0.984,-0.123,0.110,7.935,6.409,-33.630
0.989,-0.124,0.107,7.141,6.409,-31.738
0.985,-0.139,0.109,6.409,6.042,-30.823
0.981,-0.144,0.113,4.089,6.226,-29.358
0.983,-0.143,0.110,4.639,6.653,-27.527
0.979,-0.140,0.101,5.981,7.385,-26.306
0.978,-0.142,0.079,6.165,8.667,-25.330
0.973,-0.132,0.066,4.883,8.728,-24.353
0.977,-0.138,0.065,6.287,6.592,-24.170
0.980,-0.147,0.082,7.385,3.784,-24.902
0.983,-0.153,0.109,6.653,1.526,-25.085
0.996,-0.171,0.128,7.629,0.977,-25.024
0.999,-0.186,0.136,6.592,2.563,-24.231
0.999,-0.199,0.129,5.493,5.310,-22.644
0.997,-0.202,0.112,5.005,7.019,-20.813
0.993,-0.187,0.096,4.822,7.629,-18.799
0.993,-0.181,0.094,4.578,6.592,-17.212
0.989,-0.187,0.105,3.601,4.761,-17.334
0.989,-0.196,0.109,2.686,3.967,-17.639
0.988,-0.208,0.107,3.479,4.639,-17.151
0.981,-0.217,0.097,3.418,5.737,-15.930
0.973,-0.200,0.089,1.404,7.019,-13.245
0.974,-0.178,0.083,2.991,6.836,-11.108
0.973,-0.168,0.083,4.272,5.554,-10.925
0.973,-0.169,0.088,3.479,4.761,-12.024
0.972,-0.177,0.089,3.235,4.944,-13.123
0.975,-0.186,0.088,2.563,4.639,-13.794
0.979,-0.199,0.093,2.258,4.028,-14.160
0.982,-0.213,0.096,1.953,3.723,-14.160
0.983,-0.225,0.093,2.136,3.906,-13.916
0.981,-0.226,0.088,1.892,3.967,-12.451
0.987,-0.226,0.084,1.587,3.479,-11.047
0.982,-0.221,0.091,0.427,2.380,-9.644
0.983,-0.220,0.106,0.122,1.404,-8.545
0.982,-0.227,0.109,0.305,1.892,-8.301
0.980,-0.230,0.105,-0.793,3.540,-7.507
0.976,-0.225,0.096,-0.488,4.639,-6.531

1.118,-0.827,0.346,-31.494,8.057,6.287
1.153,-1.144,0.413,-47.974,17.212,1.404
1.041,-1.599,0.458,-96.619,29.175,18.250
1.010,-1.934,0.419,-165.649,50.476,93.384
0.878,-1.954,0.284,-195.862,79.590,184.937
0.740,-1.628,0.043,-178.162,105.286,275.146
0.641,-1.163,-0.190,-147.278,118.774,343.445
0.505,-0.754,-0.353,-116.028,115.601,379.211
0.446,-0.472,-0.525,-88.623,100.891,392.517
0.383,-0.234,-0.621,-75.317,73.730,394.836
0.342,-0.009,-0.608,-69.946,37.598,390.991
0.300,0.142,-0.549,-55.481,7.751,379.700
0.259,0.270,-0.469,-46.875,-14.893,368.286
0.223,0.417,-0.389,-44.678,-31.311,361.877
0.183,0.570,-0.318,-36.011,-41.504,366.272
0.168,0.849,-0.240,-18.066,-47.974,369.263
0.209,1.242,-0.125,8.362,-53.894,348.389
0.278,1.491,-0.021,34.668,-56.702,289.124
0.325,1.539,0.073,38.574,-54.138,224.548
0.356,1.509,0.142,28.748,-46.265,171.265
0.392,1.491,0.166,35.828,-37.354,134.277
0.425,1.538,0.160,45.837,-28.503,109.131
0.469,1.601,0.141,50.415,-21.851,85.938
0.502,1.606,0.143,50.171,-22.339,61.584
0.541,1.611,0.190,41.321,-28.198,39.551
0.592,1.606,0.256,31.494,-33.386,20.386
0.641,1.589,0.314,22.278,-33.020,2.808
0.630,1.565,0.342,13.123,-26.001,-14.404
0.632,1.439,0.313,4.517,-13.672,-35.217
0.601,1.350,0.287,-6.348,-4.211,-52.979
0.615,1.259,0.244,-6.836,3.601,-69.092
0.606,1.136,0.214,-2.502,10.376,-87.463
0.604,0.989,0.173,-1.221,16.846,-104.675
0.604,0.854,0.120,-0.549,23.621,-117.798
0.610,0.752,0.062,4.272,28.564,-125.854
0.628,0.654,0.005,12.207,30.762,-131.470
0.651,0.570,-0.027,15.076,29.724,-136.108
0.674,0.495,-0.044,16.357,26.428,-138.367
0.703,0.429,-0.054,19.653,22.156,-138.733
0.736,0.376,-0.048,20.264,17.212,-137.573
0.764,0.325,-0.044,20.142,12.634,-135.010
0.802,0.285,-0.035,18.738,8.606,-131.653
0.830,0.245,-0.012,18.494,3.723,-127.991
0.846,0.216,0.011,18.372,-0.488,-124.146
0.854,0.192,0.026,18.494,-2.380,-119.690
0.884,0.187,0.025,17.822,-3.235,-114.685
0.896,0.189,0.067,17.395,-6.714,-109.741
0.901,0.183,0.113,17.822,-9.827,-106.689
0.911,0.191,0.133,20.508,-8.179,-104.065
0.924,0.208,0.141,23.437,-5.371,-101.563
0.930,0.194,0.133,27.954,-2.747,-101.013
0.928,0.178,0.117,27.893,0.488,-100.281
0.933,0.161,0.106,26.978,2.991,-98.633
0.939,0.147,0.106,28.564,2.808,-96.436
0.951,0.147,0.120,28.137,1.648,-93.201
0.959,0.136,0.133,28.198,0.854,-90.576
0.977,0.097,0.148,26.855,0.366,-89.294
0.989,0.048,0.170,23.560,0.061,-87.097
0.992,0.024,0.194,22.766,1.221,-82.214
0.998,0.014,0.195,26.001,4.761,-76.233
0.995,0.017,0.171,28.442,10.010,-70.679
0.991,0.029,0.142,27.710,13.916,-65.674
0.982,0.038,0.109,26.672,15.015,-61.584
0.973,0.056,0.087,23.437,15.381,-58.411
0.968,0.062,0.073,21.484,14.404,-56.641
0.961,0.055,0.066,20.813,12.329,-56.152
0.959,0.052,0.068,18.616,10.315,-55.420
0.962,0.035,0.071,18.250,8.240,-55.176
0.965,0.018,0.076,16.418,6.897,-54.565
0.969,-0.001,0.081,14.832,6.226,-53.772
0.974,-0.024,0.085,15.747,5.310,-52.795
0.978,-0.038,0.091,15.259,4.150,-50.903
0.985,-0.041,0.101,13.123,3.235,-48.157
0.992,-0.051,0.106,12.817,3.113,-45.837
0.996,-0.054,0.109,13.000,3.723,-43.945
1.000,-0.054,0.112,12.939,4.150,-42.175
1.001,-0.049,0.117,13.428,3.784,-40.771
1.001,-0.047,0.123,13.367,3.601,-40.161
1.000,-0.053,0.126,13.733,3.784,-40.588
0.999,-0.057,0.127,13.245,4.517,-40.710
0.997,-0.073,0.115,13.489,5.310,-40.894
0.994,-0.092,0.108,11.658,6.226,-40.771
0.990,-0.107,0.104,10.803,6.409,-40.039
0.985,-0.117,0.093,12.756,6.042,-38.574
0.984,-0.120,0.084,12.329,5.066,-36.377
0.987,-0.128,0.087,10.376,3.296,-34.668
0.988,-0.136,0.107,7.996,1.099,-32.959
0.989,-0.131,0.128,7.324,0.122,-30.884
0.994,-0.131,0.131,8.667,1.099,-29.358
0.993,-0.132,0.123,8.240,3.662,-28.442
0.990,-0.126,0.114,6.653,5.798,-27.527
0.992,-0.134,0.100,7.080,6.531,-26.978
0.990,-0.146,0.094,6.042,6.287,-26.917
0.991,-0.162,0.102,4.700,4.883,-26.855
0.990,-0.168,0.118,4.944,3.113,-25.940
0.995,-0.171,0.126,5.432,3.174,-24.658
0.991,-0.170,0.123,6.592,5.127,-23.865
0.992,-0.172,0.114,7.202,7.019,-23.071
0.988,-0.174,0.110,7.446,7.568,-22.278
0.984,-0.159,0.110,6.531,7.324,-21.118
0.989,-0.154,0.097,6.836,7.568,-20.752
0.982,-0.173,0.087,7.263,8.606,-22.400
0.980,-0.178,0.081,7.202,8.240,-22.278
0.981,-0.182,0.086,8.423,6.287,-21.423
0.979,-0.187,0.089,8.057,5.188,-20.996
0.987,-0.205,0.087,6.775,4.944,-20.813
0.982,-0.223,0.086,5.371,5.005,-20.020
0.981,-0.225,0.088,4.272,5.066,-17.822
0.982,-0.231,0.085,5.676,4.761,-15.808
0.978,-0.216,0.084,4.028,4.700,-13.611
0.979,-0.208,0.082,3.052,4.272,-12.329
0.979,-0.210,0.081,2.136,3.601,-11.841
0.972,-0.202,0.082,0.061,3.357,-11.536
0.974,-0.206,0.084,0.916,3.296,-11.597
0.978,-0.219,0.089,1.221,2.380,-12.268
0.984,-0.229,0.101,1.587,1.587,-12.817
0.983,-0.240,0.105,4.578,2.319,-12.451
0.983,-0.232,0.104,6.653,4.089,-11.108
0.982,-0.232,0.092,9.155,5.676,-10.437

1.097,-0.905,0.348,5.127,19.775,8.911
1.157,-1.212,0.429,8.545,26.489,11.719
1.116,-1.805,0.521,-5.188,34.851,33.875
0.995,-2.244,0.589,-44.128,55.725,100.708
0.758,-2.490,0.486,-64.087,92.163,191.895
0.504,-2.304,0.139,-74.097,137.939,295.654
0.272,-1.747,-0.359,-76.172,177.734,398.254
0.060,-1.058,-0.870,-63.782,186.890,474.609
-0.094,-0.378,-1.217,-44.434,158.142,515.381
-0.122,0.288,-1.308,-18.188,93.933,523.987
-0.149,0.760,-1.167,20.630,13.855,506.226
-0.136,0.963,-0.849,45.837,-62.561,496.216
0.013,1.532,-0.385,50.171,-119.019,476.562
0.128,1.847,0.056,87.463,-141.235,375.671
0.211,1.878,0.321,87.219,-126.221,272.400
0.265,1.787,0.399,48.279,-90.515,189.636
0.335,1.676,0.381,42.480,-56.580,128.113
0.389,1.663,0.360,52.490,-32.776,87.036
0.450,1.614,0.290,63.904,-12.451,50.293
0.510,1.440,0.174,65.857,2.258,14.038
0.575,1.232,0.094,57.007,3.906,-10.803
0.659,1.107,0.110,48.096,-11.108,-17.883
0.742,1.096,0.230,37.598,-34.607,-12.207
0.805,1.122,0.389,23.560,-50.598,-6.470
0.853,1.149,0.502,7.080,-51.514,-4.700
0.864,1.159,0.530,-6.165,-37.048,-8.057
0.816,1.173,0.476,-13.550,-13.611,-15.625
0.816,1.119,0.350,-14.343,10.071,-28.381
0.749,1.105,0.256,-15.991,24.719,-42.053
0.746,1.024,0.140,-9.399,36.499,-59.143
0.700,0.933,0.063,-5.310,42.358,-77.393
0.686,0.807,-0.017,-3.662,45.776,-93.384
0.664,0.676,-0.091,-2.869,47.302,-106.079
0.656,0.555,-0.163,-3.540,44.922,-114.075
0.663,0.443,-0.207,-5.859,38.330,-118.103
0.678,0.361,-0.208,-9.583,26.245,-118.042
0.708,0.294,-0.189,-9.033,13.000,-115.479
0.745,0.257,-0.164,-8.301,2.747,-110.596
0.798,0.204,-0.142,-8.911,-4.883,-105.469
0.842,0.157,-0.100,-13.123,-13.000,-100.952
0.872,0.130,-0.064,-14.404,-18.982,-95.703
0.899,0.135,-0.052,-8.545,-21.912,-88.806
0.930,0.187,-0.030,-4.517,-24.231,-80.872
0.941,0.241,0.020,-1.648,-27.344,-76.050
0.947,0.286,0.066,1.221,-28.992,-74.768
0.952,0.309,0.103,1.953,-28.809,-76.233
0.963,0.280,0.129,1.953,-28.503,-80.811
0.962,0.234,0.158,-0.183,-27.710,-84.656
0.967,0.208,0.193,-0.610,-23.926,-85.266
0.972,0.190,0.218,5.066,-18.311,-84.045
0.972,0.176,0.222,13.062,-11.292,-83.008
0.974,0.181,0.208,16.907,-4.150,-81.421
0.979,0.168,0.180,21.301,0.793,-80.872
0.990,0.138,0.166,22.583,2.563,-80.994
0.993,0.114,0.161,19.348,2.930,-79.590
0.993,0.103,0.154,18.188,4.333,-76.477
0.991,0.106,0.137,18.433,6.165,-73.181
0.993,0.113,0.114,17.578,8.118,-70.435
0.989,0.123,0.101,15.991,9.277,-68.054
