aX,aY,aZ,gX,gY,gZ
0.872,0.071,0.184,-242.065,-75.317,-102.173
0.953,0.066,0.245,-78.552,-21.973,-31.128
0.958,0.063,0.259,-12.817,-2.136,-4.456
0.964,0.066,0.263,-1.648,0.305,-0.610
0.962,0.065,0.262,0.671,1.343,0.244
0.963,0.065,0.255,0.916,2.502,0.671
0.962,0.074,0.250,0.854,3.296,1.221
0.964,0.083,0.242,1.526,3.479,1.526
0.961,0.092,0.240,1.221,2.991,1.709
0.960,0.095,0.238,1.282,2.258,0.977
0.966,0.098,0.241,1.038,1.343,0.610
0.970,0.095,0.252,1.282,0.366,0.061
0.971,0.096,0.268,1.343,-0.488,0.061
0.971,0.097,0.277,1.343,-0.183,0.183
0.973,0.101,0.277,1.160,0.916,0.244
0.974,0.101,0.278,1.221,1.709,0.183
0.970,0.104,0.278,0.793,2.502,0.183
0.968,0.104,0.275,0.671,3.296,0.061
0.973,0.102,0.269,0.366,3.540,-0.244
0.963,0.092,0.271,-0.122,3.418,-0.488
0.966,0.091,0.267,-0.549,3.540,-0.427
0.963,0.087,0.264,-0.122,3.601,-0.183
0.961,0.093,0.263,-0.549,3.601,0.244
0.961,0.090,0.257,-0.549,3.784,0.244
0.957,0.084,0.253,-0.549,3.723,0.000
0.957,0.078,0.251,-0.977,3.418,-0.061
0.957,0.081,0.251,-1.099,2.747,0.122
0.957,0.084,0.257,-0.732,1.953,0.549
0.956,0.084,0.264,-0.244,1.953,0.488
0.958,0.079,0.263,0.122,2.808,0.000
0.958,0.078,0.260,0.000,3.906,-0.305
0.955,0.074,0.255,0.122,4.089,-0.122
0.955,0.072,0.247,-0.427,4.333,0.122
0.958,0.070,0.243,-0.366,4.028,0.244
0.959,0.071,0.247,0.122,2.441,0.427
0.960,0.072,0.259,0.366,1.282,0.793
0.960,0.075,0.264,0.610,1.587,0.977
0.959,0.076,0.268,0.977,1.953,1.038
0.959,0.080,0.268,0.916,2.563,0.977
0.963,0.085,0.267,0.366,3.479,1.099
0.960,0.089,0.266,0.671,3.357,1.160
0.959,0.090,0.264,0.793,3.540,1.038
0.960,0.090,0.259,0.549,3.723,0.793
0.959,0.087,0.253,0.366,3.479,0.549
0.955,0.083,0.248,0.183,2.808,0.610
0.958,0.079,0.247,0.122,2.075,0.854
0.958,0.082,0.257,0.305,1.038,1.221
0.960,0.094,0.267,0.549,0.610,1.770
0.962,0.097,0.264,0.671,1.404,1.587
0.968,0.095,0.260,0.061,2.136,0.732

0.553,0.210,-0.946,5.554,-120.911,-28.076
0.440,0.131,-1.018,2.869,-182.617,-36.560
0.353,0.060,-1.004,1.709,-254.150,-38.818
0.277,-0.050,-0.869,2.869,-336.426,-34.973
0.168,-0.131,-0.612,-9.583,-415.344,-26.306
0.100,-0.187,-0.286,-29.541,-482.666,-10.925
0.085,-0.264,0.138,-43.335,-542.847,5.371
0.043,-0.300,0.671,-64.819,-591.187,23.926
0.074,-0.241,1.209,-93.384,-607.544,49.072
0.233,-0.089,1.708,-108.643,-580.505,72.937
0.274,0.088,2.053,-101.990,-519.836,87.158
0.361,0.259,2.240,-83.374,-424.927,88.257
0.443,0.419,2.276,-65.369,-316.345,81.055
0.442,0.527,2.195,-46.631,-215.454,65.369
0.435,0.538,2.012,-24.841,-128.723,43.823
0.442,0.454,1.798,-7.141,-59.082,21.790
0.443,0.270,1.595,7.141,-11.536,2.319
0.441,0.103,1.443,14.648,15.930,-6.653
0.437,0.029,1.345,17.822,32.288,-2.258
0.454,0.052,1.312,21.912,41.077,11.963
0.477,0.166,1.346,18.127,47.852,28.687
0.478,0.316,1.439,5.920,54.382,37.476
0.502,0.482,1.562,-7.202,64.392,37.476
0.477,0.557,1.637,-15.259,86.121,27.649
0.497,0.510,1.598,-18.433,124.573,7.629
0.483,0.449,1.494,-27.588,172.058,-11.536
0.461,0.374,1.369,-29.358,215.515,-24.597
0.441,0.284,1.224,-13.428,253.540,-31.189
0.463,0.230,1.077,6.042,283.264,-32.227
0.471,0.177,0.920,23.865,304.016,-31.677
0.509,0.172,0.756,32.593,316.895,-28.381
0.545,0.197,0.607,38.208,321.045,-21.973
0.567,0.190,0.450,48.828,316.223,-18.005
0.615,0.184,0.290,45.837,305.298,-15.259
0.666,0.208,0.184,27.893,287.170,-13.733
0.713,0.182,0.120,19.409,264.404,-18.433
0.720,0.112,0.092,21.057,240.540,-23.437
0.730,0.075,0.072,16.907,219.421,-22.827
0.735,0.072,0.054,9.827,202.454,-17.944
0.765,0.097,0.038,7.446,187.256,-13.245
0.792,0.095,0.026,9.155,170.715,-9.521
0.812,0.099,0.026,6.653,155.701,-8.545
0.820,0.117,0.052,2.808,142.151,-7.629
0.807,0.100,0.057,7.446,131.348,-7.385
0.818,0.105,0.033,7.996,125.427,-6.348
0.830,0.108,-0.002,6.836,118.164,-4.822
0.848,0.103,-0.036,6.775,106.689,-4.333
0.868,0.096,-0.054,4.578,91.858,-3.662
0.879,0.106,-0.052,0.488,75.928,-3.052
0.882,0.107,-0.034,-1.709,60.791,-2.441

0.440,0.149,-1.293,24.414,-168.945,-21.179
0.318,0.126,-1.272,27.893,-251.587,-26.306
0.073,0.073,-1.118,22.522,-344.727,-28.503
-0.090,0.033,-0.833,-18.188,-429.321,-28.809
-0.075,-0.051,-0.466,-51.819,-514.832,-26.550
-0.085,-0.203,0.014,-59.937,-600.159,-18.372
-0.062,-0.340,0.574,-72.693,-667.419,-1.282
-0.014,-0.269,1.267,-125.305,-697.510,27.161
-0.071,-0.083,1.889,-162.720,-681.519,59.143
0.096,0.188,2.411,-155.212,-614.624,83.618
0.231,0.382,2.724,-111.511,-503.784,89.783
0.303,0.546,2.807,-76.050,-372.681,78.491
0.339,0.669,2.639,-57.678,-228.699,57.129
0.367,0.646,2.267,-27.039,-92.285,30.396
0.391,0.494,1.804,9.216,11.047,3.906
0.487,0.329,1.429,22.827,67.810,-13.550
0.415,0.177,1.141,27.527,79.590,-18.799
0.483,0.135,0.988,27.161,64.819,-14.343
0.515,0.109,0.956,16.357,36.316,-7.812
0.530,0.090,1.013,7.568,12.451,-1.892
0.542,0.115,1.097,0.000,4.028,4.211
0.557,0.162,1.163,-0.916,8.240,10.498
0.557,0.230,1.221,-3.418,19.043,14.343
0.529,0.273,1.256,-5.127,33.691,12.939
0.552,0.298,1.239,-3.784,52.979,7.568
0.539,0.306,1.179,-3.174,75.317,3.479
0.525,0.308,1.072,-4.456,98.572,-1.038
0.525,0.275,0.953,-2.625,118.713,-7.690
0.525,0.241,0.868,-0.671,130.432,-14.038
0.544,0.191,0.831,4.395,130.554,-17.334
0.582,0.170,0.846,8.057,123.901,-17.090
0.610,0.157,0.897,14.221,117.554,-15.564
0.622,0.131,0.943,23.315,117.004,-14.709
0.619,0.124,0.967,28.198,125.610,-14.160
0.627,0.132,0.954,30.396,139.771,-13.062
0.639,0.159,0.925,33.508,156.433,-11.841
0.674,0.126,0.884,38.025,172.852,-11.963
0.657,0.072,0.811,40.527,191.101,-14.648
0.659,0.058,0.729,32.532,207.764,-13.489
0.661,0.043,0.622,32.471,220.154,-10.681
0.690,0.049,0.528,36.377,227.295,-7.141
0.710,0.069,0.448,42.664,225.830,-2.686
0.728,0.089,0.392,48.523,216.125,0.549
0.740,0.118,0.356,47.180,204.529,3.052
0.763,0.131,0.327,44.006,192.932,3.174
0.794,0.125,0.310,39.795,181.458,2.075
0.823,0.120,0.321,32.898,170.654,0.427
0.827,0.088,0.329,30.273,162.109,-1.282
0.806,0.080,0.338,25.879,159.241,-0.977
0.823,0.090,0.317,21.240,162.292,0.610

0.444,0.219,-1.073,15.076,-158.325,-47.607
0.301,0.183,-1.148,16.907,-224.731,-59.387
0.233,0.106,-1.113,16.541,-301.208,-70.374
0.188,-0.079,-0.902,8.972,-391.907,-78.064
0.165,-0.293,-0.522,-22.827,-487.366,-77.942
0.139,-0.464,-0.001,-64.148,-572.388,-64.392
0.071,-0.525,0.535,-97.168,-630.798,-35.217
0.055,-0.438,1.043,-125.549,-649.231,6.165
0.114,-0.228,1.467,-138.123,-627.380,46.936
0.206,0.011,1.820,-126.709,-573.792,73.059
0.354,0.170,2.068,-100.708,-500.916,78.552
0.399,0.283,2.278,-77.576,-411.682,72.266
0.462,0.387,2.376,-64.575,-311.157,61.096
0.474,0.458,2.335,-49.683,-203.430,45.532
0.494,0.434,2.139,-23.437,-100.342,27.893
0.505,0.331,1.857,-2.380,-14.526,9.521
0.481,0.216,1.571,5.798,42.419,-3.784
0.483,0.148,1.336,10.315,73.914,-7.324
0.505,0.111,1.180,19.592,83.313,-3.235
0.542,0.147,1.127,20.447,79.956,4.822
0.570,0.207,1.149,15.991,72.021,12.024
0.542,0.263,1.203,7.996,72.205,12.695
0.573,0.300,1.218,0.854,85.449,8.057
0.592,0.272,1.198,5.249,106.445,0.610
0.613,0.235,1.146,12.817,129.211,-5.981
0.611,0.188,1.093,18.860,154.053,-10.986
0.596,0.156,1.022,27.771,178.528,-13.245
0.618,0.125,0.937,40.710,200.562,-11.780
0.609,0.115,0.860,48.767,216.797,-8.057
0.631,0.115,0.774,52.673,230.103,-6.531
0.668,0.078,0.675,56.274,236.328,-7.446
0.693,0.043,0.590,50.720,236.023,-9.399
0.713,0.011,0.512,42.725,230.469,-9.888
0.745,-0.014,0.468,38.696,221.252,-6.775
0.757,-0.048,0.430,37.048,209.717,-2.258
0.786,-0.051,0.423,30.823,197.693,2.686
0.812,-0.070,0.406,25.391,185.303,8.789
0.802,-0.062,0.371,21.057,175.964,13.794
0.792,-0.020,0.331,13.977,170.715,18.616
0.782,0.021,0.260,16.113,167.480,21.240
0.800,0.060,0.184,21.729,162.109,22.522
0.801,0.100,0.123,22.949,152.832,21.606
0.818,0.109,0.064,25.024,138.794,17.212
0.849,0.116,0.035,21.790,119.690,12.085
0.859,0.093,0.047,17.029,96.558,8.179
0.852,0.065,0.077,13.489,76.050,5.005
0.854,0.063,0.124,8.362,61.218,4.822
0.906,0.059,0.183,9.094,49.255,6.531
0.909,0.036,0.241,11.719,41.077,7.874
0.904,0.045,0.282,5.371,40.710,9.338

0.339,0.021,1.759,-94.604,-503.906,53.467
0.369,0.138,2.039,-81.543,-461.365,54.565
0.409,0.203,2.293,-67.383,-396.484,44.189
0.409,0.222,2.409,-55.481,-306.763,30.090
0.392,0.228,2.381,-50.354,-202.087,20.142
0.368,0.220,2.191,-39.856,-93.323,13.123
0.400,0.186,1.857,-18.494,0.427,8.606
0.424,0.118,1.528,2.258,64.148,5.554
0.422,0.100,1.278,7.263,92.773,5.981
0.460,0.133,1.125,6.409,96.130,11.230
0.484,0.163,1.068,6.409,84.534,15.503
0.494,0.225,1.100,-3.357,71.899,17.029
0.462,0.268,1.144,-13.794,69.275,13.855
0.491,0.290,1.140,-14.771,80.811,6.165
0.523,0.236,1.095,-4.028,100.464,-3.357
0.544,0.171,1.040,5.249,119.873,-11.658
0.526,0.120,1.000,10.193,137.695,-15.442
0.571,0.082,0.956,19.104,153.687,-14.221
0.617,0.071,0.931,31.799,164.673,-7.812
0.606,0.058,0.910,41.016,173.340,-2.502
0.597,0.069,0.861,41.077,183.655,-1.282
0.585,0.054,0.793,39.246,193.848,-1.343
0.644,0.055,0.728,33.813,199.890,-1.831
0.693,0.046,0.698,30.273,199.036,-2.380
0.700,0.036,0.701,27.649,194.885,-2.930
0.697,0.029,0.702,26.001,193.909,-2.625
0.687,0.010,0.654,27.527,197.998,-1.343
0.692,0.013,0.566,25.513,206.177,0.244
0.693,0.017,0.458,23.865,211.731,2.319
0.719,0.019,0.344,24.658,210.999,3.784
0.734,0.013,0.252,24.658,202.148,4.700
0.760,0.018,0.198,22.766,184.998,6.104
0.806,0.028,0.174,19.409,161.316,8.972
0.832,0.037,0.191,15.930,136.353,10.986
0.842,0.057,0.258,13.550,114.258,12.329
0.852,0.056,0.327,15.320,99.365,14.282
0.834,0.058,0.351,15.137,96.008,15.320
0.829,0.096,0.329,7.263,100.891,15.930
0.838,0.108,0.270,5.127,106.140,14.893
0.848,0.117,0.216,5.493,106.445,12.451
0.884,0.112,0.174,7.019,99.365,9.094
0.877,0.083,0.177,7.874,87.769,5.066
0.896,0.079,0.191,5.920,76.843,2.808
0.915,0.071,0.220,5.920,67.383,2.502
0.928,0.050,0.239,6.348,61.096,1.953
0.938,0.043,0.241,1.343,58.899,2.014
0.930,0.031,0.227,-1.465,58.899,2.075
0.931,0.032,0.194,-1.343,58.167,3.174
0.930,0.030,0.151,-0.549,55.603,4.456
0.935,0.054,0.121,-0.854,50.964,5.249

0.333,-0.405,1.580,-98.083,-508.301,41.626
0.369,-0.153,1.927,-109.070,-477.478,80.017
0.377,0.169,2.228,-115.112,-414.307,100.830
0.394,0.396,2.356,-88.318,-319.763,98.511
0.447,0.506,2.326,-54.749,-213.806,79.895
0.462,0.541,2.176,-37.781,-113.037,55.115
0.465,0.465,1.934,-25.940,-27.100,28.137
0.460,0.325,1.642,-12.634,37.170,5.737
0.465,0.252,1.404,-3.723,80.566,-3.479
0.493,0.205,1.218,7.629,97.961,-3.479
0.518,0.187,1.127,14.648,96.741,-1.038
0.537,0.210,1.138,5.005,92.041,0.671
0.551,0.207,1.180,-2.808,94.177,0.061
0.559,0.204,1.219,-5.066,108.215,-2.258
0.547,0.186,1.214,-1.038,134.521,-5.310
0.596,0.167,1.156,13.855,167.480,-7.263
0.587,0.127,1.090,30.457,197.327,-6.836
0.567,0.125,1.017,41.443,224.792,-7.141
0.591,0.099,0.895,53.589,249.084,-5.920
0.619,0.115,0.763,59.937,265.381,-2.197
0.631,0.137,0.670,60.547,267.761,2.258
0.661,0.107,0.578,65.247,263.794,1.221
0.699,0.096,0.508,58.411,255.310,-0.122
0.717,0.088,0.444,46.143,243.896,0.000
0.720,0.061,0.369,38.208,232.422,-0.854
0.725,0.039,0.275,30.212,222.107,-1.404
0.757,0.025,0.180,22.644,209.290,-0.854
0.794,0.008,0.112,18.311,190.552,1.038
0.809,0.010,0.093,13.306,167.664,4.211
0.822,0.012,0.104,13.123,143.860,7.629
0.832,0.024,0.141,14.465,123.108,10.925
0.854,0.036,0.180,13.306,106.750,14.038
0.875,0.083,0.241,11.292,95.154,15.747
0.882,0.090,0.293,12.390,88.684,15.625
0.886,0.107,0.318,11.963,90.759,12.756
0.868,0.114,0.302,8.423,98.022,10.254
0.870,0.121,0.243,7.141,105.408,7.568
0.876,0.114,0.170,5.493,108.032,5.554
0.885,0.088,0.116,3.479,103.821,3.357
0.889,0.076,0.087,0.305,95.459,2.563
0.911,0.072,0.072,0.610,83.679,2.991
0.923,0.063,0.087,1.953,70.618,3.784
0.928,0.063,0.112,1.343,59.143,4.822
0.930,0.070,0.134,-1.160,52.734,4.578
0.936,0.064,0.134,-0.061,50.476,3.601
0.949,0.057,0.130,-0.122,48.035,4.089
0.957,0.063,0.150,-1.343,44.739,5.127
0.958,0.059,0.173,-0.061,42.053,5.920
0.974,0.059,0.177,1.221,42.419,6.470
0.982,0.063,0.183,0.793,44.922,6.531

0.533,0.265,-0.937,-27.954,-100.952,-17.212
0.419,0.309,-1.110,-33.691,-149.780,-28.198
0.395,0.291,-1.257,-35.461,-211.731,-41.870
0.289,0.161,-1.233,-39.429,-290.527,-57.434
0.135,0.005,-1.026,-55.176,-376.892,-64.026
0.075,-0.143,-0.723,-73.181,-458.374,-56.641
0.081,-0.278,-0.318,-83.801,-533.508,-39.001
0.049,-0.394,0.192,-91.736,-604.919,-16.113
-0.001,-0.406,0.741,-97.473,-661.011,12.634
-0.030,-0.304,1.298,-100.830,-686.584,49.683
0.062,-0.116,1.852,-96.497,-674.500,81.787
0.178,0.086,2.310,-87.463,-627.014,97.656
0.254,0.312,2.715,-77.209,-535.217,95.215
0.304,0.555,2.911,-65.674,-406.555,85.938
0.345,0.730,2.875,-43.091,-258.240,72.632
0.387,0.744,2.611,-8.728,-108.704,46.997
0.403,0.591,2.186,18.066,16.602,13.245
0.404,0.411,1.762,23.804,103.394,-15.747
0.450,0.253,1.417,23.071,151.855,-32.410
0.505,0.126,1.149,25.208,164.490,-37.598
0.521,0.088,1.010,20.935,153.503,-30.151
0.555,0.118,0.961,9.705,135.681,-16.418
0.542,0.157,0.974,4.517,123.718,-6.836
0.566,0.186,0.982,3.357,122.559,-2.075
0.600,0.207,0.973,5.371,134.705,-1.770
0.599,0.218,0.941,15.259,153.748,-3.967
0.596,0.220,0.883,30.334,173.157,-7.141
0.614,0.212,0.813,44.678,188.354,-9.094
0.666,0.174,0.713,50.049,197.388,-9.705
0.656,0.164,0.644,44.250,199.219,-9.888
0.680,0.139,0.590,37.048,195.435,-11.536
0.725,0.086,0.549,34.485,190.308,-14.954
0.729,0.034,0.516,29.541,185.242,-16.418
0.735,0.007,0.486,23.560,178.467,-14.343
0.756,-0.002,0.455,21.179,170.532,-10.559
0.785,-0.009,0.424,21.423,160.339,-6.287
0.798,0.003,0.398,20.935,149.597,-2.075
0.800,0.019,0.378,20.325,139.954,0.427
0.816,0.040,0.356,19.409,131.653,2.869
0.850,0.051,0.350,19.226,124.756,3.601
0.841,0.042,0.365,19.348,119.385,3.723
0.830,0.037,0.359,20.630,116.394,4.395
0.842,0.044,0.326,19.531,115.356,7.263
0.849,0.070,0.285,16.968,112.671,10.620
0.847,0.074,0.245,15.625,108.276,12.268
0.842,0.098,0.214,13.794,102.905,11.719
0.865,0.115,0.192,14.526,94.116,11.292
0.884,0.124,0.199,15.015,83.008,10.254
0.899,0.124,0.242,13.000,72.021,8.240
0.919,0.113,0.314,9.338,62.134,7.019

0.449,0.423,-1.053,-2.014,8.545,-27.405
0.319,0.476,-1.434,13.733,-17.151,-49.805
0.125,0.497,-1.820,28.931,-73.975,-74.036
-0.078,0.457,-2.097,38.452,-169.800,-104.980
-0.283,0.260,-2.135,37.842,-303.162,-138.245
-0.518,-0.001,-1.865,8.850,-464.111,-160.217
-0.808,-0.244,-1.286,-53.162,-633.179,-159.851
-0.965,-0.464,-0.470,-121.277,-796.570,-136.597
-0.969,-0.582,0.543,-176.270,-935.425,-96.741
-0.900,-0.548,1.797,-228.882,-1023.865,-45.959
-0.813,-0.241,3.002,-266.846,-1043.335,4.150
-0.594,0.104,4.000,-242.981,-957.397,48.767
-0.362,0.466,4.000,-193.909,-769.592,75.500
-0.096,0.847,4.000,-151.367,-479.065,81.726
0.108,0.903,4.000,-71.472,-133.911,53.894
-0.011,0.650,3.023,23.621,165.100,9.888
0.039,0.355,1.960,85.571,346.619,-16.113
0.134,0.185,1.201,118.774,412.903,-20.630
0.266,0.044,0.666,137.146,379.272,-20.020
0.385,-0.000,0.422,121.094,305.237,-11.475
0.478,0.007,0.402,74.463,221.008,-1.648
0.537,0.039,0.544,30.518,146.606,5.615
0.597,0.067,0.731,3.723,100.708,10.193
0.622,0.060,0.852,-5.859,86.975,9.705
0.628,0.041,0.862,-10.681,95.947,7.935
0.608,0.062,0.818,-12.268,115.112,6.836
0.623,0.052,0.726,-2.563,135.376,4.395
0.626,0.041,0.642,12.451,149.231,1.953
0.641,0.041,0.571,24.170,153.442,2.197
0.668,0.039,0.525,32.898,148.560,3.052
0.678,0.040,0.509,32.410,136.536,3.662
0.703,0.044,0.515,25.696,123.291,3.418
0.733,0.051,0.551,20.935,109.131,2.441
0.748,0.049,0.598,15.686,96.008,3.662
0.761,0.049,0.640,6.409,87.463,4.761
0.786,0.075,0.679,-5.676,84.045,5.127
0.809,0.069,0.709,-11.841,82.764,4.944
0.794,0.047,0.732,-16.296,85.938,2.502
0.802,0.044,0.749,-19.897,91.003,1.221
0.822,0.034,0.737,-15.381,96.619,1.343
0.828,0.040,0.725,-9.033,103.943,0.427
0.828,0.028,0.709,-3.784,112.427,-1.160
0.840,-0.004,0.693,3.540,123.291,-3.784
0.827,-0.007,0.685,8.484,137.085,-4.822
0.814,-0.012,0.651,20.630,152.161,-2.808
0.809,0.003,0.578,30.823,168.213,1.343
0.811,0.048,0.495,33.020,181.641,5.676
0.823,0.068,0.389,33.447,190.247,7.019
0.841,0.075,0.294,29.114,191.833,5.676
0.882,0.085,0.225,20.386,185.425,3.357

0.437,0.226,-1.323,18.433,12.939,-3.174
0.303,0.250,-1.735,18.250,-19.958,-13.977
0.101,0.212,-2.093,26.672,-82.642,-32.227
-0.113,0.135,-2.309,41.748,-181.458,-55.847
-0.215,-0.012,-2.294,40.771,-317.688,-74.158
-0.448,-0.214,-1.902,18.005,-478.577,-83.679
-0.577,-0.338,-1.221,-29.480,-645.447,-67.444
-0.646,-0.356,-0.382,-92.224,-791.321,-32.715
-0.663,-0.289,0.509,-150.635,-880.920,5.066
-0.513,-0.009,1.363,-205.200,-909.729,52.795
-0.314,0.327,2.121,-225.281,-887.329,88.379
-0.041,0.701,2.754,-209.717,-808.044,101.196
0.137,0.941,3.180,-176.514,-664.368,88.318
0.257,1.005,3.371,-135.254,-493.225,56.763
0.365,0.912,3.230,-100.952,-294.373,14.648
0.435,0.584,2.795,-62.988,-99.976,-37.354
0.458,0.238,2.248,-28.198,54.565,-77.148
0.473,0.012,1.717,5.798,147.522,-87.158
0.486,-0.114,1.253,39.856,183.777,-71.472
0.543,-0.162,0.889,61.707,178.162,-38.269
0.594,-0.068,0.694,60.181,142.151,0.732
0.625,0.083,0.686,49.438,87.158,29.541
0.636,0.222,0.796,35.400,37.170,42.847
0.636,0.340,0.963,16.296,9.216,44.861
0.670,0.392,1.091,7.080,7.935,35.828
0.696,0.385,1.151,8.911,24.963,20.386
0.692,0.344,1.144,11.292,50.354,4.700
0.710,0.291,1.104,10.742,76.538,-7.935
0.726,0.236,1.062,8.301,99.548,-17.151
0.695,0.189,1.004,6.714,119.507,-22.400
0.658,0.146,0.918,7.690,139.099,-26.001
0.664,0.096,0.820,8.850,158.264,-27.893
0.681,0.047,0.740,10.315,173.218,-28.931
0.712,0.031,0.690,12.268,181.946,-27.954
0.737,-0.023,0.661,20.142,184.021,-23.376
0.734,-0.064,0.620,24.536,185.608,-18.250
0.742,-0.059,0.580,19.165,189.697,-12.390
0.768,-0.057,0.526,21.423,191.833,-6.531
0.771,-0.047,0.460,28.992,191.162,-1.160
0.783,-0.006,0.396,31.738,186.279,5.066
0.814,0.033,0.346,32.776,176.636,11.108
0.860,0.039,0.312,33.325,164.551,13.733
0.905,0.011,0.286,27.283,152.161,13.123
0.928,0.028,0.309,11.047,139.343,11.841
0.940,0.028,0.362,3.479,125.427,10.193
0.934,0.013,0.417,8.545,114.807,10.681
0.923,0.019,0.453,12.878,116.638,12.817
0.902,0.022,0.431,17.029,129.944,12.756
0.875,0.023,0.358,20.569,149.536,10.071
0.854,0.016,0.253,22.766,168.030,7.874

0.416,0.191,-1.269,-3.540,-34.241,-17.029
0.386,0.155,-1.524,0.183,-73.364,-28.076
0.278,0.059,-1.685,9.949,-140.930,-42.542
0.133,-0.009,-1.715,3.723,-234.009,-49.072
-0.033,-0.060,-1.604,-13.550,-336.670,-48.035
-0.157,-0.099,-1.345,-27.649,-439.087,-41.748
-0.236,-0.119,-0.962,-34.119,-535.767,-32.227
-0.328,-0.150,-0.513,-45.837,-619.507,-20.630
-0.302,-0.080,0.015,-82.825,-690.308,1.282
-0.246,0.080,0.663,-127.563,-744.690,28.992
-0.133,0.285,1.398,-155.579,-780.518,50.964
-0.030,0.443,2.123,-159.729,-789.734,61.401
0.069,0.676,2.837,-152.893,-749.878,59.631
0.116,0.729,3.349,-131.897,-645.142,39.856
0.163,0.646,3.566,-107.178,-495.178,3.052
0.167,0.477,3.482,-99.548,-302.551,-38.635
0.203,0.234,3.131,-80.383,-102.783,-72.632
0.242,0.027,2.627,-37.659,64.453,-84.106
0.276,-0.057,2.128,14.587,178.162,-72.632
0.352,-0.056,1.717,63.477,238.159,-44.922
0.390,0.002,1.390,92.957,252.197,-10.498
0.435,0.122,1.161,95.764,239.990,14.771
0.471,0.221,1.014,84.106,220.154,25.085
0.497,0.280,0.947,64.941,201.477,22.522
0.529,0.290,0.917,45.898,188.660,12.268
0.582,0.244,0.874,31.555,185.791,-0.977
0.615,0.182,0.790,20.020,194.031,-12.512
0.622,0.139,0.693,13.611,205.872,-20.264
0.644,0.099,0.594,18.494,217.346,-24.719
0.696,0.058,0.504,27.527,224.304,-24.902
0.734,0.027,0.436,32.959,225.830,-24.231
0.732,0.001,0.368,34.668,223.450,-24.475
0.759,-0.041,0.301,34.912,218.689,-25.635
0.799,-0.077,0.248,31.494,211.304,-26.245
0.839,-0.106,0.189,29.846,199.158,-26.184
0.852,-0.136,0.138,29.114,182.312,-24.658
0.871,-0.148,0.106,22.827,162.354,-19.958
0.891,-0.150,0.092,17.334,140.198,-13.733
0.896,-0.131,0.102,14.526,117.981,-6.653
0.922,-0.107,0.119,16.663,96.680,-0.854
0.935,-0.099,0.149,20.874,77.637,3.906
0.941,-0.078,0.178,19.714,64.270,7.446
0.955,-0.063,0.196,17.700,56.824,9.033
0.950,-0.044,0.216,15.015,52.429,10.620
0.957,-0.017,0.239,9.583,52.124,12.268
0.946,0.006,0.248,4.822,56.152,12.451
0.942,0.032,0.247,2.380,63.171,11.902
0.945,0.038,0.227,4.333,70.740,11.047
0.939,0.032,0.200,6.226,77.698,9.399
0.935,0.026,0.163,6.531,83.618,7.324

0.323,0.200,-1.512,18.738,6.104,-6.470
0.253,0.186,-1.884,38.696,-39.490,-21.912
0.160,0.117,-2.143,47.241,-124.268,-42.419
0.001,0.018,-2.164,38.879,-253.784,-59.387
-0.203,-0.113,-1.856,14.099,-410.278,-65.552
-0.363,-0.220,-1.305,-25.330,-562.988,-56.702
-0.385,-0.282,-0.544,-69.641,-698.242,-35.706
-0.356,-0.352,0.366,-110.779,-799.438,-15.198
-0.296,-0.250,1.348,-155.518,-846.802,11.658
-0.129,-0.045,2.237,-186.340,-833.313,39.490
0.106,0.197,3.090,-183.228,-756.470,60.059
0.323,0.458,3.667,-162.109,-604.675,74.280
0.455,0.674,3.819,-128.052,-407.288,76.050
0.497,0.751,3.505,-73.608,-192.749,61.401
0.513,0.636,2.857,-10.071,-5.432,34.302
0.532,0.419,2.161,37.964,118.103,7.935
0.536,0.242,1.619,60.791,178.589,-5.920
0.545,0.133,1.245,72.144,193.237,-10.315
0.560,0.075,1.035,77.209,174.377,-7.080
0.602,0.124,0.984,63.232,145.142,3.784
0.631,0.221,1.020,41.382,122.925,11.963
0.649,0.272,1.052,25.146,117.920,10.071
0.640,0.270,1.029,11.169,130.981,0.366
0.610,0.248,0.948,0.427,157.349,-10.437
0.669,0.184,0.793,1.892,188.721,-18.860
0.679,0.103,0.636,11.658,212.463,-24.963
0.686,0.053,0.504,18.250,224.854,-26.794
0.713,0.019,0.400,25.818,229.553,-24.963
0.778,-0.016,0.308,34.546,225.525,-21.240
0.810,-0.039,0.247,37.598,214.661,-17.822
0.818,-0.032,0.213,31.555,198.242,-13.611
0.851,-0.022,0.181,25.146,179.504,-9.460
0.885,-0.016,0.152,20.081,162.476,-6.409
0.895,-0.015,0.127,15.137,146.606,-5.310
0.901,-0.020,0.114,8.240,130.859,-4.272
0.908,-0.017,0.111,1.343,116.089,-2.808
0.919,-0.009,0.119,-0.977,101.440,-1.587
0.927,-0.006,0.130,0.916,89.050,-0.549
0.930,-0.017,0.126,5.432,82.092,1.465
0.922,-0.001,0.128,4.761,80.383,2.991
0.916,0.024,0.125,5.188,78.796,4.578
0.940,0.039,0.118,10.437,74.585,7.080
0.951,0.058,0.115,11.597,69.580,9.033
0.958,0.070,0.105,8.728,65.735,9.094
0.949,0.071,0.093,5.310,64.087,6.653
0.954,0.067,0.072,0.854,63.721,4.272
0.968,0.058,0.054,-3.052,63.232,2.319
0.970,0.061,0.040,-5.676,61.157,0.916
0.967,0.052,0.029,-4.333,57.068,0.916
0.964,0.048,0.031,-3.235,53.162,1.160

0.378,0.169,-1.479,21.667,-4.822,-17.944
0.212,0.198,-1.772,34.546,-43.823,-29.602
0.054,0.197,-1.970,43.701,-126.099,-44.556
-0.037,0.131,-1.914,41.870,-254.639,-62.927
-0.130,-0.028,-1.530,15.747,-406.311,-79.529
-0.256,-0.194,-0.935,-33.447,-548.767,-84.412
-0.262,-0.291,-0.258,-79.529,-664.612,-75.073
-0.210,-0.403,0.469,-105.591,-747.986,-53.955
-0.099,-0.383,1.242,-140.198,-803.528,-17.517
-0.053,-0.133,2.075,-180.115,-830.017,27.405
0.132,0.164,2.925,-195.129,-813.477,64.453
0.229,0.454,3.585,-183.167,-720.764,76.416
0.266,0.703,3.873,-168.701,-555.603,65.918
0.272,0.805,3.769,-132.263,-333.130,39.368
0.364,0.606,3.263,-56.824,-90.454,-1.404
0.361,0.350,2.543,10.925,115.967,-33.752
0.383,0.154,1.883,55.786,245.117,-45.532
0.432,0.065,1.394,81.482,305.542,-36.072
0.506,0.031,0.994,98.389,306.091,-20.264
0.560,0.038,0.726,98.999,273.437,-8.362
0.599,0.096,0.600,73.547,234.314,0.366
0.639,0.137,0.552,46.021,197.937,2.747
0.669,0.143,0.553,27.588,168.518,-0.854
0.699,0.124,0.570,13.489,151.611,-7.019
0.729,0.092,0.558,6.531,147.461,-12.878
0.731,0.064,0.528,9.583,150.879,-16.357
0.773,0.016,0.471,19.470,157.288,-19.287
0.804,-0.020,0.437,24.414,163.391,-21.179
0.839,-0.043,0.429,26.428,164.978,-20.569
0.850,-0.073,0.434,30.640,161.926,-17.700
0.893,-0.088,0.445,29.907,158.264,-13.123
0.927,-0.107,0.443,26.428,155.640,-8.728
0.918,-0.114,0.442,20.142,156.616,-5.676
0.877,-0.115,0.414,16.052,161.865,-2.869
0.879,-0.099,0.363,17.395,168.762,2.014
0.887,-0.078,0.307,20.752,175.293,8.484
0.878,-0.031,0.255,24.170,178.711,12.695
0.898,0.004,0.201,28.259,176.758,16.479
0.911,0.038,0.149,29.907,172.058,17.639
0.903,0.058,0.101,27.710,165.588,16.357
0.907,0.044,0.051,25.085,159.546,12.878
0.909,0.035,0.006,19.470,155.090,9.338
0.904,0.032,-0.031,17.456,149.780,7.935
0.914,0.028,-0.067,19.470,141.907,8.606
0.924,0.020,-0.109,19.165,133.057,9.033
0.922,0.043,-0.123,11.536,125.061,9.827
0.932,0.052,-0.127,8.301,116.333,10.071
0.933,0.027,-0.137,10.437,107.910,8.484
0.946,0.053,-0.130,5.005,101.624,7.935
0.962,0.068,-0.112,5.859,95.032,7.996

0.492,0.096,-1.252,5.432,-63.965,-12.390
0.437,0.123,-1.368,6.470,-111.755,-17.883
0.356,0.119,-1.409,8.484,-176.819,-24.719
0.260,0.130,-1.364,-0.427,-248.047,-32.043
0.179,0.153,-1.255,-13.550,-321.777,-38.330
0.113,0.125,-1.074,-26.733,-396.851,-44.739
0.087,0.018,-0.765,-47.058,-473.511,-53.467
0.088,-0.120,-0.369,-72.937,-549.683,-57.190
0.147,-0.255,0.165,-100.525,-618.774,-48.340
0.194,-0.346,0.776,-126.038,-667.419,-31.067
0.230,-0.275,1.396,-146.973,-683.228,-7.019
0.299,-0.142,1.950,-147.156,-664.185,17.578
0.436,-0.020,2.428,-126.953,-608.826,34.790
0.517,0.128,2.782,-113.037,-515.137,44.128
0.529,0.311,2.964,-107.849,-392.273,44.800
0.543,0.411,2.922,-80.933,-248.413,37.903
0.529,0.374,2.684,-33.142,-98.450,24.048
0.546,0.240,2.267,7.996,35.583,5.188
0.521,0.101,1.829,32.043,132.690,-9.827
0.546,0.046,1.487,36.072,190.735,-12.268
0.591,0.059,1.236,38.208,211.853,-5.676
0.622,0.062,1.061,46.875,206.055,0.427
0.640,0.085,0.959,42.419,195.007,4.822
0.659,0.119,0.897,25.635,187.561,4.639
0.674,0.119,0.851,16.479,186.646,-0.977
0.706,0.085,0.797,16.479,192.444,-8.362
0.727,0.054,0.723,18.066,205.261,-14.465
0.743,0.017,0.638,25.696,220.642,-18.311
0.769,-0.033,0.553,34.973,234.985,-20.142
0.774,-0.070,0.467,39.001,246.277,-20.752
0.796,-0.101,0.387,40.771,251.221,-19.226
0.831,-0.126,0.304,42.419,250.977,-16.602
0.844,-0.145,0.238,42.175,247.864,-13.062
0.834,-0.157,0.167,43.274,241.455,-8.118
0.849,-0.151,0.088,41.809,232.788,-1.892
0.862,-0.125,0.017,37.964,223.206,3.601
0.863,-0.106,-0.043,37.109,209.839,8.301
0.876,-0.083,-0.099,35.950,193.542,12.085
0.883,-0.064,-0.146,32.654,176.086,14.893
0.881,-0.048,-0.192,27.832,159.363,16.235
0.885,-0.017,-0.219,22.461,143.066,17.212
0.908,0.005,-0.224,21.729,125.549,17.944
0.919,0.004,-0.217,23.743,107.788,17.334
0.922,0.008,-0.201,18.372,93.079,16.296
0.914,0.023,-0.182,11.719,83.984,14.771
0.920,0.029,-0.181,12.634,77.759,13.245
0.943,0.039,-0.185,14.771,72.327,12.573
0.950,0.051,-0.181,12.512,66.162,12.085
0.953,0.053,-0.182,11.414,61.157,9.460
0.948,0.044,-0.189,10.925,57.495,6.409

0.348,0.066,-1.537,7.446,-109.436,-18.188
0.262,0.036,-1.663,17.578,-181.458,-28.259
0.139,0.000,-1.598,13.062,-283.203,-35.706
0.044,-0.063,-1.310,-8.057,-397.095,-41.504
0.002,-0.149,-0.870,-42.053,-509.155,-42.725
0.001,-0.248,-0.323,-73.975,-610.291,-35.950
-0.007,-0.349,0.331,-100.708,-684.814,-21.301
0.006,-0.340,0.998,-129.089,-726.135,2.441
0.084,-0.186,1.671,-149.414,-732.361,35.950
0.185,0.016,2.258,-148.804,-704.651,65.186
0.282,0.247,2.845,-129.272,-633.118,79.224
0.423,0.452,3.238,-102.722,-517.578,79.346
0.478,0.615,3.382,-81.970,-369.934,66.345
0.502,0.634,3.229,-55.542,-201.294,38.635
0.530,0.502,2.812,-24.475,-32.166,5.432
0.524,0.308,2.227,5.005,106.384,-20.996
0.506,0.154,1.692,26.978,190.979,-31.677
0.538,0.107,1.303,35.583,231.018,-27.588
0.580,0.079,1.014,45.166,231.323,-21.362
0.599,0.072,0.848,47.363,211.243,-13.611
0.623,0.096,0.779,33.569,189.758,-6.165
0.651,0.115,0.762,20.752,176.392,-3.784
0.692,0.134,0.772,18.066,172.058,-5.676
0.740,0.109,0.771,24.597,175.476,-8.484
0.752,0.060,0.731,31.250,188.293,-12.512
0.755,0.010,0.638,32.654,209.229,-17.456
0.749,-0.007,0.534,33.447,230.774,-20.508
0.749,-0.027,0.428,41.016,245.605,-17.944
0.780,-0.057,0.308,52.063,253.174,-12.939
0.809,-0.049,0.220,54.443,253.540,-7.812
0.827,-0.040,0.159,54.199,246.033,-4.639
0.858,-0.070,0.089,54.932,232.300,-3.418
0.865,-0.073,0.029,45.044,218.018,-2.075
0.865,-0.065,-0.027,34.241,202.332,-0.488
0.872,-0.057,-0.073,30.518,184.814,2.380
0.894,-0.051,-0.103,28.748,166.504,6.348
0.905,-0.043,-0.118,25.757,148.621,9.460
0.910,-0.025,-0.120,21.606,132.202,11.902
0.907,-0.002,-0.118,18.494,118.103,14.160
0.927,0.017,-0.113,16.113,105.347,15.259
0.938,0.020,-0.111,13.367,94.971,14.648
0.936,0.017,-0.112,8.545,87.708,12.268
0.945,0.024,-0.110,4.028,82.092,11.230
0.952,0.040,-0.099,5.005,77.026,10.986
0.958,0.042,-0.088,9.644,72.693,10.742
0.959,0.045,-0.086,11.414,70.984,9.277
0.967,0.051,-0.088,7.812,71.228,7.263
0.973,0.040,-0.098,5.859,71.472,4.761
0.976,0.021,-0.101,3.296,70.801,2.747
0.981,0.006,-0.102,0.183,69.946,1.282

0.406,0.079,-1.511,18.494,-80.139,-10.498
0.302,0.052,-1.638,31.982,-147.217,-23.621
0.159,0.070,-1.594,24.780,-236.450,-34.485
0.112,0.062,-1.425,9.216,-336.304,-45.471
-0.055,-0.003,-1.076,0.244,-445.312,-53.833
-0.058,-0.110,-0.646,-28.992,-547.180,-53.894
-0.023,-0.198,-0.100,-74.341,-636.536,-44.678
-0.001,-0.265,0.532,-117.065,-709.900,-27.039
0.058,-0.209,1.221,-166.809,-750.000,-2.136
0.073,0.010,1.892,-200.256,-750.549,27.283
0.234,0.192,2.434,-187.744,-714.355,48.950
0.323,0.374,2.907,-156.738,-624.023,56.213
0.353,0.555,3.187,-130.798,-490.173,55.237
0.411,0.595,3.223,-88.379,-321.777,38.757
0.448,0.488,2.992,-38.818,-139.832,10.620
0.455,0.323,2.518,-2.319,23.010,-13.672
0.444,0.175,1.993,25.940,141.968,-28.381
0.485,0.079,1.560,46.814,215.637,-27.039
0.535,0.039,1.206,62.134,248.718,-17.578
0.572,0.035,0.937,73.425,243.469,-8.545
0.593,0.080,0.777,69.214,217.651,1.770
0.631,0.133,0.711,54.993,189.514,9.644
0.674,0.165,0.710,42.786,166.199,10.925
0.723,0.161,0.730,33.691,150.818,6.592
0.739,0.146,0.752,24.719,146.423,0.366
0.755,0.131,0.751,19.592,153.076,-6.165
0.758,0.074,0.721,23.743,164.124,-12.695
0.781,0.020,0.665,24.170,178.528,-15.747
0.800,-0.015,0.606,21.057,192.871,-16.602
0.817,-0.057,0.534,26.367,205.688,-18.005
0.833,-0.096,0.453,33.997,215.759,-16.296
0.814,-0.099,0.372,36.987,222.473,-12.451
0.813,-0.099,0.293,40.649,224.487,-7.629
0.834,-0.104,0.215,44.983,221.130,-3.235
0.857,-0.103,0.144,43.579,212.524,-0.183
0.881,-0.096,0.092,36.072,200.256,3.479
0.901,-0.091,0.045,29.846,184.753,6.531
0.890,-0.074,0.018,26.550,168.457,9.644
0.881,-0.048,-0.010,28.381,154.419,13.489
0.891,-0.016,-0.040,29.663,142.639,17.334
0.910,0.024,-0.051,27.893,133.118,19.165
0.932,0.038,-0.052,26.611,122.620,17.944
0.936,0.042,-0.056,23.254,113.098,14.893
0.930,0.044,-0.049,16.907,106.445,12.207
0.951,0.018,-0.056,14.038,100.464,9.644
0.966,-0.004,-0.062,8.545,94.604,7.874
0.969,-0.014,-0.070,3.723,90.698,6.958
0.950,-0.008,-0.071,4.395,87.891,8.179
0.953,0.008,-0.080,9.155,85.938,10.559
0.963,0.028,-0.098,12.268,84.839,11.963

0.433,0.086,-1.331,2.502,-65.735,-17.761
0.345,0.093,-1.554,9.033,-111.633,-25.757
0.207,0.096,-1.676,17.761,-186.768,-36.926
0.030,0.106,-1.677,21.973,-283.203,-48.218
0.011,0.096,-1.484,21.606,-392.883,-63.477
-0.347,-0.026,-1.140,17.761,-511.841,-81.421
-0.493,-0.161,-0.724,-33.508,-616.882,-79.590
-0.341,-0.313,-0.197,-115.417,-708.862,-66.101
-0.336,-0.335,0.554,-192.688,-799.561,-32.410
-0.301,-0.142,1.471,-254.517,-875.488,17.761
-0.333,0.226,2.430,-273.743,-914.917,64.453
-0.142,0.520,3.334,-223.999,-876.770,88.074
-0.020,0.773,3.925,-164.429,-747.192,79.163
0.039,0.891,4.000,-133.179,-545.532,42.786
0.111,0.772,3.903,-97.900,-286.865,-7.751
0.252,0.482,3.329,-46.692,-23.865,-53.650
0.158,0.189,2.550,5.005,177.612,-81.665
0.260,0.043,1.878,37.781,301.453,-83.069
0.339,-0.049,1.343,72.083,354.370,-61.768
0.383,-0.114,0.915,101.074,338.257,-31.006
0.414,-0.013,0.683,91.736,298.523,1.465
0.473,0.135,0.631,69.702,253.418,26.062
0.589,0.206,0.661,65.857,216.248,34.241
0.658,0.236,0.723,60.425,191.895,30.640
0.681,0.257,0.771,45.349,184.814,19.287
0.682,0.227,0.774,36.682,192.871,4.150
0.698,0.145,0.730,35.400,210.083,-10.376
0.736,0.085,0.672,32.776,231.262,-21.179
0.745,0.015,0.598,38.635,248.840,-25.574
0.739,-0.054,0.502,51.819,261.353,-24.353
0.750,-0.071,0.408,56.824,270.203,-18.494
0.778,-0.088,0.313,58.655,272.827,-11.780
0.788,-0.125,0.216,60.669,270.447,-7.812
0.813,-0.123,0.135,54.382,264.771,-3.418
0.824,-0.123,0.065,48.523,254.761,1.404
0.840,-0.115,0.005,47.607,241.516,6.592
0.855,-0.073,-0.033,46.814,225.586,14.221
0.837,-0.033,-0.068,50.781,209.839,21.240
0.849,0.009,-0.116,53.101,196.899,25.085
0.861,0.047,-0.166,48.523,184.570,26.184
0.869,0.075,-0.211,40.222,171.692,24.658
0.874,0.094,-0.246,31.555,158.569,20.996
0.878,0.091,-0.271,26.306,143.982,16.052
0.892,0.076,-0.288,20.386,128.906,11.475
0.909,0.066,-0.280,12.756,113.647,7.996
0.913,0.058,-0.253,7.935,98.816,5.493
0.931,0.033,-0.226,7.446,86.670,4.089
0.948,0.018,-0.194,6.409,78.857,3.052
0.972,0.000,-0.161,5.554,74.158,2.014
0.973,-0.019,-0.144,7.935,71.472,1.343

0.332,0.132,-1.358,14.832,-128.235,-16.907
0.256,0.108,-1.448,25.085,-187.500,-28.320
0.155,0.088,-1.411,27.832,-264.709,-38.879
-0.004,0.083,-1.264,21.362,-345.093,-50.171
-0.157,0.063,-1.051,16.235,-420.776,-59.265
-0.201,0.032,-0.782,9.827,-493.225,-65.430
-0.187,-0.045,-0.412,-5.737,-568.298,-67.139
-0.102,-0.176,0.028,-42.786,-642.517,-65.369
-0.045,-0.224,0.549,-117.920,-700.684,-55.847
0.007,-0.097,1.134,-204.468,-743.896,-26.611
0.081,0.135,1.790,-258.484,-760.803,9.216
0.131,0.328,2.321,-262.268,-747.498,37.354
0.088,0.488,2.842,-230.713,-684.814,44.678
0.038,0.588,3.183,-191.772,-567.261,33.569
0.075,0.581,3.337,-144.775,-407.654,9.766
0.140,0.413,3.283,-88.745,-228.394,-21.790
0.146,0.218,3.023,-39.734,-54.932,-45.227
0.163,0.091,2.630,7.385,84.839,-48.340
0.180,0.040,2.217,53.833,179.260,-32.227
0.203,0.085,1.885,84.351,236.938,-7.812
0.274,0.162,1.629,100.159,264.771,15.259
0.347,0.224,1.408,103.027,272.095,31.616
0.390,0.323,1.262,87.463,265.015,37.781
0.478,0.345,1.134,68.115,254.578,34.668
0.501,0.335,1.038,50.049,248.474,23.254
0.506,0.291,0.944,34.668,251.404,5.493
0.526,0.211,0.813,27.466,262.024,-11.902
0.543,0.120,0.668,23.010,273.437,-24.963
0.610,0.047,0.504,20.081,281.494,-32.776
0.616,-0.017,0.374,20.996,279.236,-34.790
0.629,-0.051,0.254,24.414,270.142,-32.837
0.669,-0.071,0.156,30.884,257.080,-29.053
0.737,-0.092,0.078,41.138,238.525,-24.719
0.798,-0.121,0.027,48.523,214.050,-20.569
0.825,-0.155,0.006,48.828,184.875,-17.822
0.864,-0.175,0.010,38.574,153.931,-14.771
0.884,-0.170,0.045,26.367,124.390,-8.728
0.917,-0.154,0.095,21.057,98.694,-2.258
0.928,-0.146,0.137,22.400,78.979,3.540
0.921,-0.118,0.157,19.836,66.223,10.132
0.917,-0.065,0.160,13.184,57.556,16.357
0.909,-0.032,0.161,10.193,52.490,19.348
0.910,-0.009,0.152,8.362,50.537,20.203
0.912,-0.005,0.140,5.249,49.500,19.470
0.919,-0.006,0.128,1.038,48.645,17.395
0.921,-0.007,0.120,-2.136,47.607,15.320
0.925,-0.000,0.112,-3.052,46.082,14.526
0.925,0.012,0.104,-1.160,44.128,14.954
0.933,0.026,0.092,0.977,40.466,16.174
0.942,0.042,0.084,0.061,35.217,16.968

0.186,-0.143,-1.826,58.350,-103.271,-55.847
0.047,-0.281,-1.858,22.827,-216.980,-60.364
-0.173,-0.311,-1.584,-40.955,-366.211,-39.612
-0.260,-0.151,-1.075,-93.140,-518.372,-2.502
-0.340,0.008,-0.474,-113.342,-646.545,27.039
-0.398,0.180,0.149,-131.104,-743.835,48.828
-0.360,0.357,0.797,-172.729,-808.716,71.777
-0.215,0.564,1.466,-230.164,-850.708,96.130
-0.159,0.750,2.133,-264.832,-872.681,115.295
-0.228,0.940,2.846,-243.896,-855.591,111.389
-0.265,0.992,3.450,-189.392,-770.996,81.116
-0.172,0.974,3.810,-141.968,-615.967,36.255
-0.052,0.863,3.811,-109.863,-399.597,-10.254
0.019,0.639,3.484,-78.308,-159.119,-50.476
0.056,0.427,2.885,-34.912,58.289,-75.745
0.088,0.265,2.239,22.339,213.074,-78.308
0.144,0.191,1.716,72.144,299.316,-63.110
0.208,0.160,1.314,102.783,333.252,-39.551
0.307,0.185,1.023,111.633,328.125,-15.381
0.373,0.240,0.848,108.948,304.810,2.014
0.422,0.286,0.743,104.309,276.306,13.184
0.533,0.287,0.644,97.717,248.901,20.081
0.569,0.312,0.600,81.726,220.032,24.597
0.616,0.343,0.587,64.880,198.303,20.447
0.630,0.336,0.570,56.274,189.270,8.606
0.655,0.301,0.522,53.101,191.162,-6.653
0.683,0.236,0.449,51.514,196.350,-22.339
0.714,0.161,0.360,46.021,198.730,-35.828
0.750,0.083,0.296,37.598,191.711,-43.884
0.794,0.027,0.264,29.480,175.110,-45.044
0.825,-0.034,0.259,26.306,154.541,-42.969
0.856,-0.113,0.262,25.818,134.155,-39.490
0.877,-0.145,0.287,18.372,118.347,-34.302
0.890,-0.158,0.303,13.062,105.347,-26.428
0.878,-0.157,0.305,13.916,94.727,-15.625
0.865,-0.114,0.302,12.512,87.769,-2.136
0.869,-0.046,0.286,14.038,83.618,9.460
0.883,-0.004,0.259,19.531,80.505,16.235
0.879,0.045,0.250,18.616,77.515,18.982
0.895,0.081,0.242,14.160,71.594,19.714
0.907,0.099,0.247,11.047,64.148,17.395
0.927,0.100,0.260,7.385,56.030,13.062
0.942,0.079,0.274,4.150,49.133,8.850
0.931,0.071,0.308,0.366,45.593,4.883
0.957,0.069,0.348,0.732,44.189,3.845
0.953,0.048,0.380,6.470,45.593,5.127
0.943,0.049,0.389,6.470,52.612,7.202
0.942,0.063,0.381,2.136,65.552,8.545
0.932,0.072,0.368,2.563,81.116,7.935
0.942,0.086,0.351,8.179,95.642,7.202

0.083,0.227,-1.756,-19.409,-25.696,-17.700
-0.051,0.300,-2.044,-33.020,-110.107,-22.278
-0.127,0.331,-2.042,-50.415,-251.648,-33.875
-0.255,0.230,-1.656,-59.998,-426.758,-54.871
-0.331,0.104,-1.062,-77.637,-598.450,-75.378
-0.340,-0.071,-0.413,-98.022,-740.234,-97.351
-0.315,-0.212,0.283,-130.188,-852.661,-107.300
-0.221,-0.292,1.035,-180.908,-935.303,-94.177
-0.310,-0.217,1.833,-237.122,-991.516,-46.143
-0.389,0.097,2.660,-262.024,-999.634,22.339
-0.349,0.408,3.499,-226.013,-914.917,62.256
-0.116,0.629,4.000,-184.265,-726.929,71.472
0.126,0.772,4.000,-148.804,-459.106,58.167
0.215,0.679,3.771,-86.670,-153.625,21.240
0.144,0.482,2.950,-16.663,109.436,-8.789
0.159,0.341,2.134,39.490,282.837,-16.663
0.192,0.308,1.557,80.200,367.187,-8.362
0.282,0.295,1.108,109.497,387.939,0.488
0.362,0.283,0.836,119.385,371.582,8.179
0.458,0.308,0.694,106.506,340.942,16.479
0.564,0.276,0.568,97.107,304.932,19.165
0.609,0.254,0.463,81.787,268.372,19.104
0.644,0.259,0.406,61.951,232.849,13.733
0.684,0.233,0.358,50.842,207.214,4.150
0.697,0.177,0.335,46.753,189.575,-6.531
0.757,0.106,0.322,41.565,175.903,-16.296
0.806,0.021,0.321,37.048,164.124,-22.156
0.821,-0.029,0.337,31.067,154.602,-23.560
0.839,-0.050,0.365,27.466,146.179,-19.897
0.874,-0.070,0.388,32.104,139.282,-13.245
0.902,-0.078,0.405,36.987,136.841,-7.507
0.922,-0.081,0.407,39.490,138.123,-3.113
0.904,-0.084,0.383,41.016,141.968,0.366
0.883,-0.055,0.348,36.377,147.949,4.639
0.857,-0.030,0.304,36.987,153.809,9.583
0.902,-0.031,0.229,40.344,159.424,13.367
0.889,0.023,0.194,35.095,163.879,16.418
0.887,0.038,0.150,37.598,164.001,18.005
0.904,0.045,0.115,44.006,158.813,18.494
0.930,0.061,0.090,42.480,150.085,19.409
0.930,0.063,0.071,38.147,140.442,17.883
0.940,0.071,0.049,29.907,132.751,16.296
0.972,0.079,0.047,24.780,123.779,16.479
0.985,0.067,0.087,24.170,113.708,16.968
0.970,0.050,0.114,24.841,107.727,16.968
0.962,0.045,0.115,21.912,110.046,17.334
0.930,0.066,0.095,15.198,119.019,17.578
0.912,0.072,0.036,16.296,130.066,17.090
0.930,0.074,-0.039,18.250,138.733,16.663
0.958,0.088,-0.096,15.015,141.235,15.381

0.314,0.291,-1.463,4.150,-25.879,-25.574
0.167,0.329,-1.727,14.648,-85.266,-48.340
0.019,0.305,-1.886,36.560,-177.246,-76.172
-0.115,0.240,-1.836,45.532,-296.692,-105.957
-0.246,0.071,-1.560,35.156,-429.687,-134.216
-0.278,-0.136,-1.153,2.563,-564.270,-155.029
-0.295,-0.362,-0.668,-51.453,-692.749,-164.551
-0.319,-0.506,-0.085,-130.066,-806.335,-153.320
-0.366,-0.433,0.621,-229.187,-888.550,-116.150
-0.307,-0.186,1.345,-301.392,-935.852,-53.467
-0.160,0.060,2.054,-303.223,-953.125,9.033
-0.144,0.380,2.841,-277.649,-928.772,57.983
-0.072,0.682,3.488,-243.774,-806.946,76.477
0.053,0.879,3.880,-191.406,-600.891,64.941
0.263,0.833,3.766,-114.502,-331.665,31.250
0.243,0.554,3.212,-37.476,-61.584,-16.235
0.196,0.334,2.490,-0.366,151.001,-47.852
0.223,0.164,1.848,32.776,281.067,-57.007
0.270,0.098,1.398,62.134,339.050,-49.927
0.358,0.058,1.073,83.069,346.375,-32.715
0.446,0.059,0.868,93.079,334.229,-10.925
0.495,0.104,0.755,94.666,314.697,7.324
0.546,0.132,0.678,98.999,292.908,18.677
0.633,0.141,0.602,97.351,272.156,22.156
0.671,0.157,0.554,82.520,256.348,18.738
0.710,0.174,0.549,68.542,249.146,10.925
0.750,0.115,0.516,68.298,248.291,3.845
0.759,0.042,0.477,69.580,252.808,-1.160
0.762,-0.004,0.426,63.110,260.193,-2.258
0.758,-0.060,0.357,59.570,266.846,-2.197
0.798,-0.103,0.278,55.542,270.996,0.183
0.804,-0.110,0.223,51.758,267.090,6.653
0.842,-0.113,0.157,54.321,259.033,11.230
0.876,-0.126,0.084,56.702,248.901,15.808
0.887,-0.127,0.027,53.284,233.826,19.653
0.889,-0.102,-0.007,45.105,217.468,23.804
0.880,-0.068,-0.041,42.236,201.477,27.405
0.901,-0.023,-0.070,42.969,186.951,29.785
0.894,0.016,-0.082,43.945,172.852,30.884
0.897,0.033,-0.102,44.128,160.156,29.358
0.916,0.035,-0.115,38.452,148.743,26.550
0.934,0.041,-0.107,29.358,137.756,23.926
0.937,0.042,-0.102,25.330,127.502,22.644
0.944,0.044,-0.100,24.048,120.972,22.644
0.929,0.063,-0.095,20.691,117.859,23.743
0.944,0.064,-0.101,20.386,117.981,24.109
0.929,0.111,-0.111,20.081,118.591,24.719
0.952,0.124,-0.141,23.437,119.873,20.874
0.934,0.117,-0.175,24.658,121.399,14.526
0.934,0.118,-0.213,19.653,121.338,9.888

0.403,0.366,-1.177,-1.648,-20.935,-18.555
0.297,0.401,-1.385,0.549,-55.664,-40.527
0.151,0.383,-1.564,12.329,-112.427,-69.824
-0.015,0.345,-1.693,26.367,-191.223,-100.647
-0.191,0.273,-1.719,21.362,-287.964,-131.165
-0.279,0.104,-1.610,-5.371,-403.259,-162.292
-0.326,-0.184,-1.279,-49.316,-543.701,-184.753
-0.244,-0.428,-0.737,-122.070,-700.073,-190.796
-0.225,-0.545,-0.044,-215.393,-848.328,-167.786
-0.383,-0.467,0.770,-311.829,-963.501,-107.666
-0.318,-0.106,1.751,-386.536,-1020.630,-23.560
-0.270,0.299,2.654,-378.174,-1013.489,45.898
-0.096,0.584,3.467,-298.401,-901.855,72.388
0.139,0.776,3.962,-238.525,-686.218,59.265
0.431,0.871,3.987,-195.984,-397.461,23.071
0.486,0.572,3.413,-100.159,-100.586,-25.940
0.362,0.273,2.610,-11.047,130.066,-58.411
0.347,0.092,1.903,48.279,270.447,-61.646
0.382,0.035,1.410,87.891,331.299,-45.959
0.464,0.001,1.056,109.314,335.510,-24.841
0.533,-0.007,0.844,113.098,312.744,-5.066
0.600,0.029,0.731,97.778,281.799,12.207
0.625,0.092,0.672,83.130,253.418,23.743
0.671,0.115,0.612,75.012,233.154,27.405
0.688,0.128,0.571,66.223,222.778,23.376
0.707,0.117,0.536,58.777,222.900,15.320
0.709,0.082,0.490,61.646,230.469,7.507
0.745,0.022,0.428,70.496,238.953,2.808
0.783,-0.045,0.369,75.073,243.103,2.686
0.836,-0.093,0.324,72.021,242.371,3.540
0.857,-0.136,0.292,69.885,239.502,4.395
0.880,-0.177,0.248,72.754,234.192,6.592
0.879,-0.193,0.203,70.923,227.905,13.306
0.864,-0.178,0.151,65.918,222.046,21.484
0.874,-0.121,0.101,60.303,217.102,28.809
0.880,-0.086,0.050,63.721,210.693,33.875
0.887,-0.052,0.011,66.223,203.308,36.560
0.910,-0.026,-0.019,62.012,193.848,35.889
0.894,-0.025,-0.059,58.289,182.678,32.166
0.892,-0.010,-0.095,50.720,172.241,29.785
0.909,-0.001,-0.134,44.128,160.889,29.724
0.914,0.007,-0.163,40.466,148.987,30.212
0.924,0.031,-0.182,35.339,137.756,29.968
0.935,0.053,-0.196,32.227,126.404,29.968
0.935,0.066,-0.200,31.189,114.075,29.541
0.952,0.082,-0.192,26.367,102.600,28.381
0.947,0.092,-0.171,20.569,93.567,25.635
0.944,0.084,-0.162,18.311,88.745,21.545
0.973,0.080,-0.151,15.747,87.708,20.081
0.975,0.094,-0.146,14.099,87.830,18.372

0.427,0.387,-1.102,-18.799,-12.756,-20.264
0.269,0.453,-1.406,-23.254,-45.410,-39.368
0.077,0.479,-1.731,-21.851,-104.065,-64.331
-0.079,0.413,-1.958,-17.822,-200.134,-97.351
-0.176,0.247,-1.901,-43.213,-336.670,-129.944
-0.256,-0.035,-1.504,-89.722,-500.732,-156.860
-0.325,-0.220,-0.872,-158.020,-672.852,-168.457
-0.406,-0.350,-0.235,-229.492,-828.125,-157.471
-0.418,-0.406,0.485,-301.453,-945.374,-121.094
-0.325,-0.272,1.349,-376.282,-1011.597,-62.988
-0.234,0.071,2.340,-402.771,-1024.780,-1.038
-0.017,0.437,3.392,-346.008,-950.134,46.387
0.081,0.684,4.000,-254.395,-749.451,61.218
0.426,0.786,4.000,-169.678,-435.425,42.725
0.469,0.511,3.638,-57.678,-93.994,-4.211
0.360,0.221,2.698,27.039,171.814,-40.039
0.353,0.071,1.913,80.933,324.524,-46.997
0.376,0.031,1.374,116.272,386.292,-32.043
0.425,0.001,0.965,140.015,387.268,-11.658
0.543,0.017,0.698,134.827,356.995,8.362
0.621,0.069,0.560,109.436,314.087,23.621
0.659,0.078,0.479,90.576,269.348,26.123
0.686,0.054,0.442,76.782,233.582,20.142
0.699,0.022,0.428,62.317,206.970,14.038
0.725,-0.006,0.427,51.758,190.430,10.254
0.786,-0.044,0.415,50.415,183.899,8.301
0.816,-0.114,0.396,54.932,181.274,8.911
0.833,-0.137,0.400,54.810,180.603,10.071
0.857,-0.154,0.396,59.753,180.908,12.085
0.887,-0.192,0.364,70.190,180.298,15.869
0.896,-0.182,0.331,67.139,181.702,20.447
0.900,-0.166,0.295,61.279,184.509,24.353
0.917,-0.163,0.254,64.697,185.669,26.917
0.893,-0.162,0.219,70.313,187.012,30.212
0.894,-0.150,0.176,73.181,188.416,33.936
0.891,-0.107,0.136,71.777,187.439,39.307
0.905,-0.060,0.094,68.542,183.411,43.579
0.921,-0.020,0.049,65.918,176.819,45.288
0.923,0.015,0.019,61.951,169.922,45.532
0.917,0.040,0.002,59.082,162.964,44.006
0.933,0.044,-0.007,59.265,157.715,41.687
0.968,0.043,-0.012,56.213,152.832,39.429
0.985,0.031,-0.013,49.927,146.606,38.086
0.942,0.039,-0.012,42.114,143.494,37.354
0.896,0.077,-0.031,35.522,147.827,36.926
0.881,0.100,-0.080,37.598,157.593,37.048
0.880,0.127,-0.143,40.588,167.786,36.133
0.895,0.153,-0.201,41.870,174.744,33.752
0.909,0.164,-0.263,42.297,175.293,30.396
0.915,0.159,-0.337,39.612,167.664,27.344

0.352,0.315,-1.346,-4.517,-41.809,-34.119
0.232,0.319,-1.555,-7.935,-94.971,-55.054
0.091,0.297,-1.672,-16.113,-174.133,-74.829
-0.011,0.269,-1.632,-32.959,-273.621,-90.820
-0.100,0.188,-1.404,-48.157,-385.132,-104.065
-0.080,0.011,-1.036,-62.988,-498.413,-115.112
-0.088,-0.169,-0.595,-90.698,-607.178,-121.643
-0.008,-0.323,-0.148,-134.094,-702.087,-121.094
0.130,-0.448,0.334,-198.608,-780.334,-106.873
0.136,-0.348,0.924,-287.354,-845.337,-68.848
0.130,-0.107,1.604,-339.294,-883.911,-12.451
0.034,0.236,2.229,-330.566,-871.765,39.612
0.133,0.470,2.844,-261.047,-778.137,63.293
0.246,0.537,3.258,-180.054,-608.093,49.377
0.383,0.607,3.436,-138.611,-388.672,21.606
0.452,0.468,3.176,-84.473,-155.090,-10.742
0.430,0.234,2.615,-17.151,45.105,-36.804
0.445,0.066,2.007,34.912,185.181,-44.373
0.460,0.010,1.547,69.763,263.306,-34.607
0.510,-0.005,1.219,93.628,294.312,-17.761
0.568,-0.027,0.986,105.591,296.509,-2.869
0.601,0.027,0.835,95.520,288.147,10.010
0.644,0.075,0.722,85.693,274.292,18.982
0.671,0.092,0.641,82.275,259.033,19.409
0.771,0.120,0.599,75.317,246.338,14.587
0.783,0.080,0.576,76.660,239.441,6.897
0.734,0.027,0.531,79.956,244.263,-1.160
0.718,-0.024,0.459,81.970,256.653,-4.211
0.750,-0.077,0.357,84.473,268.188,-2.258
0.788,-0.101,0.261,83.252,275.024,1.526
0.825,-0.135,0.171,82.275,275.574,5.432
0.836,-0.155,0.097,82.947,269.043,8.240
0.866,-0.160,0.040,82.520,255.859,12.512
0.894,-0.181,-0.017,84.290,238.159,18.860
0.926,-0.158,-0.054,77.026,216.064,26.428
0.948,-0.115,-0.058,62.744,192.139,32.837
0.914,-0.082,-0.052,54.871,172.241,35.400
0.892,-0.046,-0.063,51.208,158.875,35.950
0.906,-0.001,-0.085,45.959,150.879,36.255
0.916,0.026,-0.104,43.823,144.653,34.668
0.911,0.028,-0.124,43.945,138.794,31.189
0.924,0.019,-0.146,40.405,132.507,27.222
0.928,0.027,-0.164,33.569,126.831,24.902
0.930,0.038,-0.179,29.968,120.972,24.048
0.927,0.032,-0.191,29.114,114.014,23.499
0.955,0.037,-0.194,25.085,108.154,21.545
0.961,0.053,-0.186,21.240,103.333,20.203
0.938,0.057,-0.189,24.109,99.854,18.494
0.926,0.064,-0.208,24.902,100.037,16.785
0.930,0.068,-0.225,22.644,101.196,14.832

0.316,0.384,-1.244,-0.732,-49.744,-35.400
0.245,0.423,-1.469,-1.953,-89.966,-56.458
0.176,0.410,-1.574,-11.841,-161.560,-83.435
0.052,0.340,-1.539,-32.837,-258.728,-110.352
-0.036,0.211,-1.370,-62.439,-364.136,-131.104
-0.078,0.018,-1.039,-88.135,-475.708,-142.395
-0.099,-0.197,-0.622,-114.746,-591.553,-144.409
0.007,-0.427,-0.170,-161.438,-699.341,-141.357
0.035,-0.531,0.359,-243.835,-789.062,-124.023
0.042,-0.423,0.976,-339.417,-858.032,-81.970
0.032,-0.133,1.737,-391.785,-902.710,-18.677
-0.028,0.259,2.422,-379.028,-906.860,41.443
0.060,0.617,3.147,-307.251,-821.167,70.740
0.160,0.702,3.649,-205.994,-640.808,54.260
0.360,0.677,3.787,-133.484,-389.038,13.855
0.398,0.445,3.402,-71.960,-113.159,-30.701
0.351,0.161,2.687,-0.793,115.906,-59.631
0.361,-0.024,1.989,62.561,267.029,-62.866
0.374,-0.071,1.492,103.821,344.971,-44.189
0.443,-0.079,1.126,129.822,369.934,-18.311
0.496,-0.066,0.883,140.991,369.080,2.319
0.536,-0.000,0.725,133.118,359.131,17.883
0.601,0.032,0.588,125.366,344.788,25.879
0.631,0.032,0.466,121.948,332.153,23.804
0.649,0.047,0.375,108.765,322.144,17.456
0.677,0.025,0.299,102.539,313.171,8.789
0.771,-0.041,0.252,108.276,304.871,0.366
0.850,-0.103,0.224,113.159,293.030,-0.977
0.857,-0.170,0.184,112.793,277.100,2.502
0.856,-0.215,0.136,103.516,262.817,10.254
0.834,-0.195,0.081,88.257,251.709,19.653
0.829,-0.172,-0.000,82.886,243.774,24.963
0.825,-0.163,-0.089,81.787,234.558,28.564
0.833,-0.130,-0.162,74.280,222.595,32.349
0.874,-0.100,-0.218,65.979,205.200,35.217
0.917,-0.101,-0.237,61.646,182.983,35.095
0.925,-0.119,-0.231,55.115,158.386,33.936
0.913,-0.105,-0.215,44.128,137.695,33.325
0.922,-0.078,-0.206,37.720,123.474,34.424
0.923,-0.053,-0.197,38.635,113.281,35.645
0.917,-0.012,-0.196,39.978,105.835,37.354
0.905,0.029,-0.201,40.222,101.196,38.269
0.913,0.066,-0.204,39.063,98.206,37.476
0.925,0.079,-0.221,37.109,94.910,34.607
0.947,0.080,-0.242,32.043,90.942,29.907
0.955,0.080,-0.250,25.146,85.266,24.170
0.954,0.064,-0.246,22.034,78.430,19.287
0.963,0.049,-0.244,21.790,72.205,16.235
0.974,0.044,-0.237,19.409,67.566,14.771
0.966,0.045,-0.233,17.761,64.575,13.550

0.261,0.370,-1.358,-5.249,-48.889,-27.222
0.196,0.365,-1.543,-15.930,-98.267,-50.232
0.139,0.297,-1.607,-30.396,-178.162,-78.796
0.041,0.165,-1.498,-51.025,-278.259,-102.539
-0.019,-0.017,-1.265,-74.524,-382.141,-116.638
0.041,-0.211,-0.936,-93.750,-484.314,-117.737
0.096,-0.358,-0.519,-114.380,-580.872,-107.544
0.199,-0.426,-0.070,-143.127,-664.490,-86.426
0.244,-0.368,0.417,-183.716,-731.567,-56.091
0.212,-0.218,0.903,-225.159,-775.269,-23.804
0.232,-0.085,1.376,-253.418,-791.870,6.897
0.231,0.039,1.825,-268.250,-778.259,33.936
0.268,0.250,2.345,-267.761,-728.333,49.866
0.316,0.413,2.749,-231.689,-623.535,47.913
0.313,0.451,2.992,-169.067,-482.910,36.255
0.384,0.478,3.042,-113.647,-309.570,27.405
0.433,0.410,2.819,-54.871,-124.512,14.404
0.432,0.286,2.394,-5.310,34.302,-0.244
0.458,0.162,1.917,27.283,149.353,-12.634
0.485,0.120,1.550,41.504,221.619,-17.456
0.516,0.108,1.282,53.528,258.301,-15.869
0.530,0.080,1.065,73.303,273.865,-12.634
0.572,0.058,0.906,91.919,277.588,-6.714
0.624,0.067,0.791,98.511,272.644,1.648
0.688,0.078,0.718,94.055,264.282,6.287
0.744,0.070,0.680,83.496,258.423,4.333
0.760,-0.002,0.628,72.449,259.277,-0.488
0.762,-0.031,0.570,58.472,262.512,-1.404
0.733,-0.069,0.510,59.082,268.250,-1.282
0.746,-0.125,0.424,69.702,277.893,-0.366
0.776,-0.141,0.342,75.562,285.706,3.235
0.797,-0.143,0.254,79.895,286.743,10.681
0.805,-0.137,0.170,86.304,281.250,18.738
0.796,-0.118,0.100,87.280,272.766,25.330
0.829,-0.091,0.038,82.703,263.489,30.090
0.857,-0.069,-0.020,77.332,252.380,33.325
0.879,-0.061,-0.080,71.167,239.197,35.400
0.869,-0.032,-0.126,58.777,224.426,35.828
0.852,0.007,-0.166,47.424,210.754,35.645
0.859,0.026,-0.221,48.279,196.899,35.034
0.869,0.040,-0.260,47.668,182.739,32.959
0.897,0.038,-0.288,44.495,166.809,30.823
0.920,0.042,-0.297,37.903,146.790,30.518
0.919,0.043,-0.280,27.710,127.747,30.273
0.940,0.077,-0.255,16.113,112.122,31.189
0.933,0.099,-0.220,12.695,101.074,31.494
0.953,0.111,-0.196,13.000,94.482,29.236
0.947,0.090,-0.182,11.353,93.018,25.330
0.936,0.084,-0.183,5.371,97.290,20.447
0.925,0.075,-0.204,5.066,104.248,17.700

0.428,0.156,-1.246,54.810,-49.622,-33.386
0.323,0.165,-1.407,56.274,-81.055,-45.471
0.190,0.156,-1.532,53.467,-123.962,-58.655
0.093,0.141,-1.585,48.523,-178.162,-71.106
0.015,0.109,-1.546,39.978,-247.437,-80.078
-0.077,0.081,-1.412,25.513,-326.233,-85.632
-0.185,0.032,-1.226,5.249,-402.344,-88.440
-0.243,-0.011,-1.013,-18.860,-472.534,-89.417
-0.281,-0.084,-0.760,-39.917,-544.983,-88.318
-0.313,-0.178,-0.422,-68.237,-623.108,-81.421
-0.283,-0.247,0.038,-114.929,-702.515,-68.298
-0.260,-0.292,0.615,-172.485,-771.790,-50.476
-0.237,-0.175,1.300,-236.511,-816.040,-20.325
-0.195,0.093,2.068,-279.663,-823.303,20.386
0.064,0.340,2.831,-267.822,-794.250,50.720
0.156,0.498,3.495,-210.144,-699.036,54.382
0.209,0.580,3.877,-148.071,-545.288,39.185
0.297,0.594,3.877,-93.567,-339.417,18.860
0.373,0.493,3.448,-47.058,-117.126,-1.953
0.328,0.303,2.770,-12.451,70.679,-23.987
0.342,0.134,2.116,11.292,193.542,-38.452
0.346,0.010,1.612,34.180,248.535,-38.147
0.435,-0.036,1.226,45.105,252.991,-23.499
0.463,0.010,0.999,43.640,219.727,-1.038
0.512,0.128,0.921,37.415,179.626,18.982
0.570,0.188,0.911,37.476,149.841,29.175
0.629,0.224,0.933,31.555,133.484,29.785
0.653,0.252,0.946,17.883,132.202,23.132
0.670,0.246,0.904,8.484,144.470,10.254
0.662,0.189,0.813,4.028,166.138,-5.371
0.669,0.111,0.707,-0.732,191.101,-20.264
0.693,0.022,0.603,-1.892,210.693,-29.907
0.730,-0.057,0.506,2.380,220.825,-32.776
0.749,-0.122,0.428,9.949,223.328,-30.396
0.745,-0.149,0.377,15.259,220.947,-23.987
0.776,-0.167,0.325,22.217,215.149,-15.564
0.822,-0.168,0.287,26.123,208.191,-7.019
0.839,-0.152,0.250,25.574,200.378,0.549
0.832,-0.128,0.205,25.513,190.369,8.179
0.827,-0.091,0.155,23.193,181.030,14.893
0.832,-0.051,0.103,20.813,171.936,19.775
0.851,-0.022,0.059,19.165,161.560,23.071
0.888,-0.001,0.022,17.090,147.095,26.123
0.901,0.021,0.013,12.939,131.470,26.672
0.896,0.051,0.024,8.118,116.272,27.039
0.905,0.076,0.052,6.775,101.807,28.137
0.931,0.092,0.086,6.165,91.309,29.236
0.959,0.114,0.124,4.639,86.914,28.259
0.953,0.124,0.142,3.662,87.219,25.085
0.945,0.128,0.133,2.991,90.759,21.057

0.199,0.253,-1.704,149.231,17.029,-41.687
0.086,0.321,-2.075,187.622,-49.744,-64.392
-0.088,0.339,-2.291,202.637,-167.664,-97.595
-0.328,0.264,-2.245,168.518,-326.111,-129.272
-0.548,0.119,-1.874,78.613,-501.038,-149.292
-0.762,-0.096,-1.200,-33.386,-666.931,-153.015
-0.783,-0.269,-0.383,-136.353,-806.213,-137.939
-0.727,-0.335,0.578,-217.773,-902.649,-101.929
-0.539,-0.322,1.580,-267.029,-943.359,-48.889
-0.337,-0.029,2.507,-296.204,-927.612,9.949
-0.065,0.427,3.396,-266.846,-836.731,57.678
0.249,0.561,3.965,-162.903,-677.124,58.655
0.374,0.603,4.000,-85.144,-465.393,24.658
0.454,0.537,3.802,-51.575,-220.703,-6.958
0.478,0.330,3.045,-11.780,0.732,-26.978
0.436,0.085,2.226,33.997,147.461,-41.199
0.432,-0.029,1.608,64.941,213.806,-37.781
0.443,-0.068,1.175,84.595,220.459,-20.203
0.500,-0.047,0.914,90.881,187.256,0.000
0.549,0.054,0.828,70.679,143.250,16.907
0.573,0.177,0.844,40.161,104.797,25.696
0.602,0.243,0.878,19.226,82.886,23.682
0.624,0.261,0.879,5.920,80.505,13.733
0.652,0.224,0.814,0.610,92.224,0.793
0.664,0.152,0.712,4.272,109.009,-11.780
0.679,0.073,0.622,12.390,120.789,-20.203
0.712,-0.014,0.537,20.630,127.136,-25.024
0.741,-0.097,0.484,23.499,127.075,-26.855
0.743,-0.140,0.486,19.409,119.873,-24.292
0.807,-0.149,0.516,15.015,110.413,-17.456
0.841,-0.170,0.559,17.883,101.685,-10.742
0.852,-0.165,0.603,14.404,96.313,-5.188
0.857,-0.140,0.639,5.188,97.107,-0.977
0.850,-0.119,0.654,3.479,102.844,2.075
0.864,-0.108,0.650,8.179,110.718,5.310
0.854,-0.091,0.633,10.986,118.835,8.667
0.848,-0.051,0.606,10.803,126.953,12.268
0.830,-0.004,0.578,14.832,135.437,14.954
0.839,0.026,0.544,23.560,143.738,15.686
0.864,0.048,0.503,32.471,149.719,16.174
0.886,0.051,0.466,36.621,153.137,16.235
0.887,0.061,0.429,34.607,157.043,14.832
0.864,0.068,0.382,29.358,162.292,13.306
0.849,0.065,0.309,27.405,168.213,11.292
0.865,0.059,0.236,24.780,173.584,9.705
0.857,0.068,0.163,24.414,173.767,10.010
0.883,0.078,0.105,25.635,167.358,9.766
0.915,0.079,0.074,24.658,156.677,9.033
0.925,0.069,0.063,21.912,143.982,6.226
0.943,0.045,0.065,17.395,132.019,3.296

0.291,0.141,-1.496,30.457,-5.188,-21.667
-0.001,0.195,-1.991,35.889,-44.189,-32.593
-0.294,0.273,-2.475,49.622,-129.456,-49.805
-0.529,0.263,-2.693,58.350,-278.137,-70.862
-0.755,0.160,-2.375,33.264,-482.483,-85.388
-0.967,0.029,-1.546,-46.387,-694.702,-81.848
-1.043,-0.100,-0.540,-127.563,-872.192,-62.256
-1.003,-0.164,0.642,-194.214,-987.854,-31.433
-0.824,-0.024,1.937,-242.371,-1027.161,9.216
-0.497,0.320,3.060,-237.183,-993.774,47.485
-0.029,0.482,4.000,-161.011,-853.455,54.626
0.244,0.505,4.000,-94.727,-644.531,24.292
0.342,0.402,4.000,-75.867,-370.483,-13.977
0.374,0.165,3.936,-49.927,-81.909,-38.757
0.392,-0.078,2.768,-8.423,137.390,-44.067
0.334,-0.164,1.853,28.442,244.019,-36.682
0.369,-0.156,1.271,56.213,252.991,-9.705
0.396,-0.027,0.997,65.063,191.406,25.940
0.462,0.192,1.010,42.297,123.230,49.194
0.515,0.337,1.145,17.944,81.543,51.453
0.551,0.397,1.283,-0.305,73.853,38.025
0.565,0.373,1.339,-3.784,94.788,17.517
0.573,0.320,1.288,4.395,135.010,-2.014
0.561,0.241,1.135,18.494,182.861,-16.174
0.547,0.177,0.951,29.358,227.478,-26.550
0.572,0.102,0.776,37.292,264.343,-34.912
0.641,-0.013,0.599,43.762,294.067,-40.527
0.655,-0.115,0.455,41.748,307.190,-40.527
0.638,-0.137,0.351,31.982,307.800,-36.133
0.701,-0.128,0.275,35.339,299.805,-28.198
0.762,-0.143,0.213,50.293,283.752,-19.775
0.802,-0.146,0.172,53.711,264.282,-13.123
0.831,-0.126,0.151,44.434,244.812,-8.179
0.831,-0.127,0.140,37.598,227.539,-5.310
0.855,-0.136,0.137,34.546,213.440,-2.808
0.881,-0.115,0.134,34.180,201.355,1.831
0.900,-0.095,0.136,40.283,191.040,6.653
0.890,-0.072,0.140,44.678,182.739,12.207
0.890,-0.040,0.121,41.931,180.420,17.822
0.880,-0.007,0.072,34.973,184.021,20.874
0.858,0.026,0.007,28.687,187.866,21.667
0.867,0.047,-0.065,25.391,189.209,19.287
0.867,0.052,-0.136,26.062,186.218,16.174
0.889,0.069,-0.183,26.001,177.734,15.137
0.891,0.068,-0.212,28.503,165.283,13.672
0.908,0.065,-0.225,28.198,152.161,11.658
0.911,0.055,-0.239,22.217,139.893,9.827
0.924,0.051,-0.245,15.015,128.540,7.446
0.938,0.035,-0.252,10.742,118.164,6.287
0.921,0.023,-0.250,8.728,109.680,5.371

0.224,0.159,-1.574,1.282,-55.359,-14.526
-0.053,0.226,-1.984,-8.484,-110.291,-24.109
-0.331,0.244,-2.305,-20.203,-202.942,-37.659
-0.546,0.249,-2.304,-29.663,-337.341,-56.763
-0.683,0.222,-1.995,-39.368,-506.592,-60.974
-0.774,0.176,-1.321,-85.999,-676.270,-58.472
-0.786,0.088,-0.493,-131.531,-825.562,-45.959
-0.724,0.047,0.459,-171.692,-936.523,-23.987
-0.600,-0.006,1.497,-191.162,-995.056,-5.432
-0.454,0.012,2.467,-188.660,-1000.427,13.794
-0.209,0.263,3.435,-177.917,-922.729,37.292
0.135,0.411,4.000,-126.770,-752.014,40.039
0.297,0.446,4.000,-72.754,-529.724,11.780
0.319,0.394,4.000,-58.350,-260.864,-23.010
0.421,0.204,3.332,-33.630,-5.310,-46.204
0.406,-0.054,2.387,3.296,172.791,-58.044
0.375,-0.158,1.682,19.226,257.751,-56.396
0.405,-0.188,1.170,31.860,275.818,-36.621
0.456,-0.150,0.825,48.340,243.896,-6.348
0.517,-0.002,0.669,47.363,196.777,20.386
0.567,0.130,0.649,45.593,150.330,34.729
0.614,0.202,0.719,43.945,114.502,35.278
0.628,0.218,0.824,35.522,96.191,26.062
0.662,0.227,0.922,25.085,99.182,13.550
0.745,0.174,0.934,26.917,120.300,1.038
0.717,0.088,0.869,32.288,152.039,-13.184
0.698,0.025,0.736,28.931,187.622,-24.109
0.725,-0.055,0.580,32.104,218.140,-31.189
0.737,-0.132,0.457,37.598,235.413,-33.875
0.761,-0.213,0.350,39.734,237.183,-31.067
0.804,-0.230,0.297,36.133,225.830,-23.621
0.842,-0.231,0.275,36.560,205.566,-13.916
0.865,-0.223,0.286,45.044,183.594,-4.272
0.883,-0.200,0.319,49.622,164.062,5.859
0.908,-0.168,0.360,50.964,151.001,15.015
0.906,-0.133,0.398,49.377,145.874,21.606
0.884,-0.079,0.422,47.058,148.804,26.550
0.879,-0.047,0.404,49.255,158.508,31.067
0.861,0.004,0.349,50.598,170.105,34.668
0.889,0.040,0.271,47.913,180.725,34.912
0.899,0.062,0.198,43.396,186.646,31.494
0.883,0.079,0.126,38.879,187.683,26.794
0.882,0.082,0.051,38.391,184.875,23.071
0.916,0.096,0.000,37.476,176.697,20.874
0.943,0.098,-0.015,36.438,163.330,18.555
0.932,0.065,-0.029,36.743,150.635,14.404
0.919,0.059,-0.046,27.649,142.456,10.803
0.906,0.058,-0.079,18.982,137.634,8.423
0.906,0.053,-0.122,17.151,132.629,6.409
0.921,0.055,-0.159,15.930,126.648,5.005

0.314,0.173,-1.357,13.123,-39.490,-34.485
0.017,0.233,-1.704,18.250,-90.881,-49.805
-0.260,0.368,-2.078,25.208,-171.204,-66.772
-0.463,0.393,-2.346,24.170,-301.697,-92.041
-0.633,0.235,-2.200,-9.644,-490.784,-122.620
-0.782,-0.060,-1.292,-85.205,-715.759,-137.756
-0.822,-0.405,0.007,-172.058,-911.743,-129.578
-0.714,-0.529,1.454,-236.267,-1006.470,-89.111
-0.330,-0.244,2.672,-277.283,-994.019,-11.353
0.163,0.148,3.803,-248.291,-884.827,59.937
0.515,0.484,4.000,-172.974,-678.345,76.843
0.693,0.627,4.000,-104.919,-401.672,48.279
0.731,0.501,3.624,-56.213,-113.342,2.563
0.646,0.159,2.482,-14.771,107.544,-36.621
0.588,-0.071,1.605,12.268,217.712,-57.739
0.589,-0.242,0.994,29.236,225.342,-51.758
0.603,-0.235,0.749,25.757,158.203,-24.292
0.630,-0.114,0.814,-1.404,88.318,0.244
0.667,-0.019,1.000,-18.372,45.288,12.024
0.707,0.052,1.159,-22.522,39.368,14.343
0.691,0.094,1.236,-15.137,62.256,11.108
0.714,0.110,1.199,2.991,102.661,5.005
0.704,0.088,1.078,22.888,147.156,-1.465
0.690,0.038,0.908,35.889,188.110,-8.545
0.686,-0.002,0.742,40.466,221.619,-15.076
0.662,-0.047,0.606,46.265,242.493,-18.494
0.754,-0.052,0.510,53.040,250.427,-17.517
0.787,-0.102,0.474,59.387,249.146,-15.442
0.774,-0.151,0.440,59.204,246.277,-15.564
0.794,-0.172,0.393,49.622,246.521,-13.306
0.792,-0.209,0.337,46.326,245.972,-10.254
0.787,-0.231,0.278,45.471,244.629,-6.042
0.811,-0.212,0.233,44.739,240.051,0.305
0.857,-0.177,0.196,48.706,231.018,9.094
0.866,-0.156,0.149,57.068,219.238,17.090
0.862,-0.103,0.117,53.345,208.801,23.071
0.871,-0.058,0.077,47.668,201.660,26.062
0.883,-0.031,0.030,46.509,196.533,26.367
0.877,0.011,-0.010,41.138,189.392,26.367
0.888,0.001,-0.061,36.987,183.777,23.193
0.897,0.027,-0.094,26.978,176.636,20.447
0.910,0.036,-0.104,24.719,167.053,17.822
0.905,0.010,-0.115,31.677,157.227,14.648
0.910,0.006,-0.138,30.701,150.940,13.733
0.907,0.018,-0.163,24.719,146.790,13.428
0.903,0.019,-0.199,23.315,141.846,12.024
0.915,0.027,-0.239,22.888,136.475,10.132
0.914,0.030,-0.266,19.958,129.333,9.460
0.911,0.026,-0.296,16.113,121.277,8.728
0.917,0.023,-0.319,9.827,112.427,7.812

0.081,0.146,-1.765,9.583,-75.500,-30.884
-0.186,0.182,-2.178,9.094,-142.578,-46.204
-0.461,0.196,-2.435,5.432,-259.277,-61.646
-0.702,0.093,-2.375,-16.541,-414.490,-77.820
-0.904,-0.082,-1.944,-71.838,-589.661,-80.078
-1.005,-0.180,-1.186,-147.278,-762.878,-53.833
-0.950,-0.220,-0.198,-213.501,-917.664,-10.620
-0.881,-0.095,1.054,-267.517,-1020.203,42.725
-0.669,0.259,2.271,-307.739,-1051.514,105.225
-0.285,0.686,3.458,-279.785,-1002.136,145.691
0.154,0.983,4.000,-191.467,-830.811,129.944
0.400,1.042,4.000,-106.750,-585.449,69.153
0.418,0.837,4.000,-72.144,-267.395,-7.080
0.479,0.449,3.606,-50.415,42.419,-57.800
0.392,0.098,2.438,-12.939,241.943,-80.505
0.413,-0.015,1.657,8.118,322.693,-75.439
0.433,-0.131,1.090,34.485,311.218,-46.509
0.491,-0.042,0.800,35.889,252.686,-8.179
0.549,0.140,0.722,25.146,194.275,21.667
0.583,0.245,0.746,26.550,147.095,32.471
0.629,0.310,0.810,20.203,123.291,29.663
0.637,0.321,0.862,12.024,122.864,18.005
0.667,0.257,0.824,17.395,142.090,2.319
0.685,0.210,0.737,28.687,172.607,-9.155
0.678,0.145,0.634,46.387,203.430,-18.066
0.693,0.094,0.527,62.866,228.699,-22.034
0.709,0.056,0.430,73.914,246.216,-21.423
0.785,0.036,0.354,76.843,254.456,-19.470
0.844,-0.004,0.305,72.632,253.540,-19.104
0.849,-0.051,0.270,62.256,248.352,-22.217
0.845,-0.064,0.248,46.631,242.615,-21.790
0.842,-0.113,0.198,44.189,236.877,-18.921
0.848,-0.137,0.133,41.565,231.689,-13.306
0.856,-0.132,0.063,35.645,224.670,-6.226
0.842,-0.114,-0.004,35.034,213.623,-0.549
0.875,-0.076,-0.054,37.231,198.853,6.042
0.900,-0.067,-0.058,40.894,180.359,12.085
0.921,-0.007,-0.064,40.771,163.696,17.273
0.940,0.025,-0.057,44.250,149.902,18.860
0.930,0.045,-0.049,47.485,138.062,18.860
0.932,0.076,-0.048,44.067,131.409,19.531
0.917,0.097,-0.069,39.429,128.845,19.836
0.915,0.131,-0.099,34.241,127.563,18.921
0.918,0.146,-0.132,30.823,124.390,17.273
0.928,0.144,-0.164,27.344,118.408,14.038
0.936,0.152,-0.181,17.822,111.267,10.315
0.950,0.139,-0.198,11.597,102.234,6.531
0.967,0.135,-0.194,6.775,91.675,3.723
0.970,0.118,-0.180,6.836,81.299,0.916
0.969,0.083,-0.176,9.033,73.914,-1.892

0.107,0.295,-1.656,31.738,-46.692,-27.771
-0.239,0.423,-2.137,49.561,-91.125,-52.551
-0.408,0.449,-2.634,75.256,-179.626,-89.233
-0.711,0.382,-2.752,72.144,-339.294,-121.338
-1.092,0.217,-2.346,16.907,-539.062,-146.606
-1.323,-0.049,-1.517,-45.288,-745.789,-147.888
-1.343,-0.283,-0.390,-121.704,-921.875,-127.380
-1.184,-0.370,0.968,-211.975,-1030.518,-85.571
-0.896,-0.143,2.277,-290.833,-1061.523,-24.048
-0.467,0.241,3.610,-305.359,-1013.367,36.194
-0.045,0.474,4.000,-244.019,-862.549,52.612
0.287,0.542,4.000,-173.889,-616.028,25.391
0.389,0.352,4.000,-117.615,-292.786,-15.686
0.393,0.069,3.833,-67.444,20.691,-34.668
0.302,-0.157,2.573,-0.427,222.656,-36.987
0.323,-0.207,1.729,52.917,292.480,-19.043
0.335,-0.188,1.201,83.008,257.874,18.677
0.391,0.023,1.050,69.763,175.781,54.138
0.456,0.225,1.158,41.016,106.445,70.374
0.510,0.376,1.347,15.625,70.984,68.970
0.521,0.413,1.457,0.977,74.036,54.932
0.533,0.408,1.428,-3.174,108.093,33.020
0.522,0.349,1.274,-0.671,158.020,8.423
0.515,0.269,1.056,7.324,208.923,-10.254
0.527,0.168,0.820,16.602,250.000,-23.682
0.486,0.076,0.584,22.949,280.212,-32.043
0.534,0.021,0.373,26.367,301.758,-34.119
0.611,-0.036,0.185,33.386,311.646,-34.363
0.653,-0.097,0.039,40.527,305.664,-35.461
0.709,-0.159,-0.068,40.649,285.583,-34.973
0.769,-0.198,-0.123,34.180,254.700,-31.006
0.811,-0.216,-0.132,26.123,215.088,-23.865
0.870,-0.238,-0.103,20.325,171.326,-14.404
0.880,-0.224,-0.041,13.123,131.775,-3.906
0.911,-0.180,0.028,10.132,100.769,4.944
0.927,-0.142,0.095,13.794,77.698,14.648
0.925,-0.083,0.153,14.832,62.988,22.705
0.920,-0.019,0.188,11.780,57.617,27.649
0.917,0.041,0.199,11.353,57.922,29.297
0.926,0.080,0.189,12.207,61.340,28.320
0.931,0.094,0.172,11.475,65.186,23.987
0.933,0.094,0.154,7.568,68.054,18.738
0.925,0.092,0.138,3.845,69.031,14.160
0.918,0.096,0.132,2.869,67.810,11.658
0.958,0.087,0.128,4.822,64.148,11.230
0.973,0.076,0.143,5.920,59.265,10.925
0.978,0.066,0.173,3.479,54.626,10.559
0.991,0.074,0.209,-0.366,54.016,10.986
0.987,0.086,0.232,0.366,57.617,11.597
0.985,0.116,0.237,5.432,64.880,11.292

0.487,0.037,-1.327,10.193,-85.938,-22.583
0.371,0.027,-1.487,17.944,-153.625,-27.100
0.263,0.015,-1.502,17.273,-240.356,-32.227
0.140,0.002,-1.365,5.798,-337.463,-35.828
0.013,-0.032,-1.102,-6.104,-435.974,-35.889
-0.057,-0.082,-0.725,-25.818,-527.222,-31.433
-0.034,-0.149,-0.232,-53.223,-608.215,-21.545
0.017,-0.195,0.423,-88.684,-674.072,-5.798
0.079,-0.150,1.188,-133.789,-714.600,17.822
0.174,0.025,1.942,-167.542,-719.788,50.049
0.349,0.295,2.633,-168.335,-673.279,75.317
0.476,0.486,3.169,-132.996,-549.988,74.829
0.535,0.547,3.369,-87.158,-387.268,49.927
0.505,0.513,3.185,-58.594,-195.679,16.418
0.562,0.386,2.638,-31.860,-13.489,-11.230
0.551,0.184,1.993,-0.793,114.746,-30.457
0.512,0.067,1.498,10.803,178.223,-35.583
0.510,0.048,1.125,9.644,192.078,-26.733
0.532,0.059,0.856,14.160,174.622,-13.733
0.571,0.129,0.722,12.573,148.437,-2.991
0.597,0.177,0.684,11.414,122.559,1.099
0.633,0.185,0.697,13.855,104.980,-0.305
0.674,0.171,0.726,13.367,98.999,-4.089
0.694,0.161,0.746,13.550,102.112,-8.118
0.700,0.145,0.748,18.066,111.816,-11.963
0.727,0.110,0.722,24.536,126.343,-15.442
0.785,0.090,0.681,25.696,142.944,-18.188
0.828,0.047,0.641,26.062,153.442,-21.667
0.869,-0.003,0.611,22.034,158.569,-24.780
0.861,-0.059,0.578,14.648,162.781,-26.855
0.835,-0.080,0.538,8.850,168.579,-26.367
0.810,-0.094,0.482,12.268,174.133,-21.729
0.818,-0.088,0.416,21.057,179.443,-15.076
0.832,-0.080,0.359,28.564,181.763,-8.362
0.835,-0.060,0.321,33.936,180.237,-3.723
0.858,-0.045,0.283,37.903,175.110,0.366
0.868,-0.036,0.234,38.574,169.373,3.601
0.874,-0.012,0.194,32.654,163.147,6.226
0.891,0.020,0.157,28.564,153.931,9.827
0.919,0.034,0.123,29.053,141.052,11.597
0.930,0.052,0.115,25.513,126.221,12.024
0.957,0.062,0.126,23.193,112.671,10.986
0.952,0.059,0.149,24.048,101.440,9.460
0.942,0.053,0.173,23.437,94.971,8.728
0.955,0.054,0.180,18.860,93.567,8.362
0.958,0.062,0.183,13.977,94.727,7.324
0.958,0.065,0.178,12.268,96.558,6.042
0.968,0.064,0.164,13.550,99.365,4.333
0.981,0.063,0.151,15.442,102.539,2.625
0.980,0.052,0.145,19.653,106.323,1.038

0.479,0.085,-1.243,9.521,-86.304,-29.236
0.340,0.099,-1.405,3.357,-142.639,-36.499
0.204,0.114,-1.490,-2.563,-217.285,-42.603
0.084,0.093,-1.464,-9.644,-308.411,-48.218
0.007,0.052,-1.237,-31.799,-412.109,-49.622
-0.046,0.008,-0.807,-68.176,-516.235,-46.570
-0.091,-0.026,-0.266,-95.093,-603.271,-36.987
0.028,-0.100,0.297,-108.215,-662.842,-23.682
0.134,-0.154,0.916,-126.099,-705.750,-6.104
0.203,-0.113,1.633,-154.602,-726.624,15.869
0.275,0.068,2.286,-174.194,-715.271,42.664
0.397,0.291,2.927,-159.058,-637.329,60.486
0.507,0.374,3.298,-110.596,-491.760,50.171
0.524,0.377,3.323,-69.580,-310.425,25.146
0.529,0.336,2.982,-49.744,-113.770,2.258
0.568,0.197,2.335,-21.118,49.988,-14.404
0.531,0.061,1.709,0.732,150.940,-24.902
0.512,0.044,1.244,-0.183,196.106,-21.240
0.528,0.035,0.861,3.540,191.833,-10.498
0.594,0.080,0.639,5.371,161.072,0.488
0.614,0.148,0.583,-0.061,120.728,8.972
0.657,0.205,0.638,-1.282,83.618,12.512
0.690,0.219,0.761,1.709,61.157,9.277
0.723,0.205,0.884,3.540,58.350,1.648
0.749,0.156,0.957,6.958,71.472,-6.348
0.743,0.110,0.971,7.996,97.290,-14.343
0.670,0.081,0.936,9.583,129.883,-20.264
0.744,0.053,0.843,17.456,163.452,-23.437
0.805,-0.025,0.737,28.564,192.200,-26.978
0.806,-0.094,0.670,30.823,208.984,-29.358
0.790,-0.134,0.620,29.480,216.736,-26.184
0.797,-0.140,0.566,35.645,222.595,-17.822
0.823,-0.118,0.527,45.715,227.173,-6.836
0.789,-0.115,0.472,57.800,231.201,1.709
0.798,-0.075,0.391,60.242,235.596,10.559
0.814,-0.015,0.304,55.847,239.136,17.822
0.814,0.038,0.222,54.871,237.488,21.301
0.854,0.068,0.127,56.824,231.628,22.339
0.846,0.097,0.069,54.016,220.886,22.034
0.857,0.125,0.024,49.194,208.801,20.508
0.846,0.121,-0.017,48.889,198.120,16.357
0.861,0.099,-0.073,46.265,188.660,11.902
0.888,0.082,-0.119,37.048,175.720,9.216
0.906,0.073,-0.148,25.757,158.386,8.423
0.916,0.062,-0.159,19.043,139.587,8.362
0.922,0.052,-0.163,16.357,122.375,8.667
0.938,0.069,-0.150,12.695,107.483,10.315
0.944,0.090,-0.133,13.245,95.642,10.742
0.954,0.094,-0.116,17.395,87.891,9.766
0.952,0.084,-0.105,18.005,83.313,6.775

0.350,0.178,-1.549,6.592,-80.872,-28.625
0.108,0.189,-1.726,-1.892,-143.738,-44.189
-0.117,0.209,-1.806,-2.869,-221.802,-58.350
-0.195,0.199,-1.738,-1.404,-324.097,-65.857
-0.179,0.123,-1.367,-21.301,-456.848,-66.040
-0.210,0.037,-0.697,-80.750,-595.337,-58.594
-0.170,0.016,0.109,-151.367,-706.604,-37.537
-0.043,0.054,0.969,-207.336,-776.611,-5.371
0.063,0.138,1.834,-238.831,-807.678,22.949
0.136,0.299,2.574,-241.455,-797.546,42.236
0.251,0.511,3.240,-203.735,-705.200,39.856
0.396,0.418,3.570,-120.422,-550.049,9.033
0.471,0.234,3.593,-73.669,-357.788,-26.550
0.491,0.078,3.350,-69.580,-155.273,-43.213
0.533,-0.011,2.810,-43.518,22.156,-36.499
0.447,-0.037,2.172,9.216,142.700,-19.226
0.437,0.073,1.655,42.908,212.708,4.211
0.475,0.198,1.268,66.528,242.859,24.902
0.497,0.285,0.996,80.933,241.028,32.959
0.551,0.348,0.840,81.238,227.478,30.640
0.557,0.348,0.767,73.059,214.661,22.217
0.564,0.339,0.727,58.716,209.290,9.949
0.635,0.301,0.664,50.110,216.064,-3.113
0.687,0.203,0.571,49.255,227.295,-17.151
0.711,0.129,0.485,41.260,238.647,-29.663
0.747,0.043,0.408,36.377,244.934,-37.292
0.751,-0.043,0.340,39.063,246.826,-41.199
0.781,-0.104,0.283,40.344,243.958,-39.551
0.838,-0.158,0.238,41.260,236.023,-34.912
0.858,-0.201,0.205,40.161,224.792,-28.748
0.861,-0.227,0.172,35.217,212.280,-20.203
0.872,-0.216,0.140,28.564,201.294,-11.047
0.877,-0.206,0.104,27.649,189.941,-2.563
0.851,-0.176,0.075,29.541,178.833,5.127
0.925,-0.136,0.046,30.945,167.725,12.390
0.913,-0.081,0.052,34.302,154.175,18.311
0.928,-0.056,0.044,43.274,142.456,21.362
0.914,-0.028,0.037,47.363,135.071,22.949
0.927,-0.002,0.013,44.678,131.470,23.315
0.930,0.030,-0.000,38.696,129.028,22.339
0.937,0.047,-0.021,35.217,124.512,21.851
0.942,0.065,-0.047,33.691,119.507,21.301
0.942,0.072,-0.072,29.297,114.075,20.874
0.940,0.073,-0.097,23.010,108.459,18.555
0.953,0.072,-0.120,16.174,101.563,16.113
0.958,0.068,-0.127,14.160,93.018,13.794
0.968,0.067,-0.116,14.709,84.717,12.207
0.972,0.065,-0.094,17.578,78.247,10.681
0.971,0.069,-0.078,19.287,76.172,9.338
0.965,0.075,-0.080,19.958,77.942,8.179

0.494,0.052,-1.316,16.174,-85.449,-28.503
0.400,0.051,-1.449,13.123,-140.564,-36.255
0.267,0.108,-1.458,-0.488,-216.553,-39.185
0.156,0.061,-1.371,-11.719,-302.002,-47.119
0.133,-0.026,-1.159,-23.804,-393.616,-51.575
0.096,-0.081,-0.783,-43.396,-489.868,-45.837
0.028,-0.072,-0.322,-73.364,-573.364,-31.128
0.023,0.002,0.174,-101.257,-626.892,-11.292
0.099,0.022,0.672,-112.244,-656.494,4.578
0.234,-0.033,1.195,-117.615,-667.725,15.442
0.320,0.018,1.828,-142.334,-661.987,27.649
0.427,0.185,2.350,-159.485,-632.202,42.969
0.546,0.280,2.868,-136.597,-546.387,45.349
0.579,0.307,3.163,-97.351,-422.424,30.151
0.563,0.318,3.174,-74.646,-261.414,14.038
0.612,0.274,2.874,-50.049,-83.130,0.732
0.587,0.156,2.310,-13.245,68.787,-7.996
0.554,0.105,1.772,13.916,162.537,-10.559
0.565,0.147,1.388,21.912,205.017,-1.526
0.585,0.199,1.127,27.710,207.458,7.019
0.621,0.222,0.974,31.067,198.792,9.705
0.625,0.247,0.896,24.902,191.406,7.568
0.591,0.253,0.852,18.005,191.895,2.014
0.653,0.242,0.783,19.775,204.468,-3.784
0.712,0.178,0.692,27.588,224.731,-12.390
0.701,0.109,0.577,33.203,244.446,-21.912
0.710,0.060,0.458,38.452,259.949,-26.550
0.737,0.006,0.341,46.997,271.179,-27.344
0.749,-0.052,0.229,54.199,276.123,-27.039
0.782,-0.084,0.131,53.650,272.949,-23.987
0.843,-0.124,0.054,51.025,259.644,-18.738
0.878,-0.136,0.016,43.030,240.662,-13.245
0.883,-0.130,0.005,34.973,219.299,-6.592
0.862,-0.111,-0.006,36.438,200.439,-0.549
0.882,-0.075,-0.034,42.114,186.768,6.836
0.908,-0.049,-0.073,45.959,176.086,13.489
0.895,-0.011,-0.093,41.870,165.405,16.846
0.907,0.010,-0.124,34.302,153.076,17.578
0.919,0.014,-0.141,25.879,138.672,16.113
0.937,0.023,-0.140,16.602,123.657,14.893
0.946,0.029,-0.129,11.475,109.985,13.855
0.954,0.037,-0.098,13.611,98.328,13.733
0.948,0.050,-0.072,19.470,91.370,14.648
0.948,0.055,-0.072,26.062,88.867,15.686
0.960,0.063,-0.089,23.682,89.844,16.357
0.963,0.081,-0.105,14.099,90.881,15.259
0.957,0.096,-0.119,9.460,90.210,13.672
0.960,0.103,-0.135,9.766,87.402,12.695
0.965,0.115,-0.145,8.057,84.106,11.353
0.968,0.117,-0.162,6.470,80.750,8.850

0.486,0.088,-1.302,9.338,-51.819,-21.057
0.303,0.078,-1.572,8.301,-90.942,-32.410
0.113,0.099,-1.789,13.000,-155.945,-40.894
-0.053,0.109,-1.891,25.208,-247.925,-50.171
-0.209,0.104,-1.794,27.832,-367.676,-58.167
-0.378,0.137,-1.427,0.488,-504.639,-57.739
-0.503,0.139,-0.845,-45.227,-636.108,-48.889
-0.499,0.104,-0.134,-104.126,-746.826,-29.663
-0.414,0.105,0.748,-185.242,-835.144,-0.793
-0.307,0.216,1.779,-274.597,-896.545,33.508
-0.250,0.653,2.776,-329.346,-914.673,79.651
-0.025,1.091,3.794,-277.161,-831.360,100.342
0.204,1.053,4.000,-139.404,-657.288,54.138
0.292,0.869,4.000,-78.064,-405.884,-22.156
0.392,0.495,3.928,-71.228,-121.399,-90.332
0.404,0.033,3.016,-28.442,118.164,-126.404
0.365,-0.211,2.133,31.433,264.221,-127.991
0.372,-0.286,1.449,82.764,333.740,-96.497
0.417,-0.237,0.939,122.498,339.050,-43.152
0.499,-0.104,0.603,136.597,310.547,3.113
0.540,0.050,0.450,125.061,272.278,30.090
0.621,0.160,0.382,101.990,235.596,39.734
0.661,0.215,0.372,76.355,203.552,36.011
0.646,0.229,0.382,49.561,183.167,24.780
0.690,0.225,0.367,31.006,179.260,10.681
0.738,0.173,0.317,28.687,185.852,-3.296
0.762,0.102,0.257,33.752,194.153,-16.296
0.795,0.020,0.200,33.936,198.303,-25.818
0.843,-0.066,0.151,29.297,195.801,-31.433
0.869,-0.127,0.130,18.555,185.913,-33.447
0.891,-0.170,0.132,7.507,168.762,-31.189
0.897,-0.205,0.152,1.892,150.574,-26.062
0.909,-0.220,0.177,-0.122,134.094,-18.555
0.934,-0.215,0.203,2.563,119.873,-8.911
0.953,-0.190,0.237,10.376,107.666,0.122
0.937,-0.166,0.265,21.301,98.083,8.118
0.930,-0.123,0.281,28.503,93.323,15.259
0.955,-0.075,0.275,30.823,92.590,20.935
0.945,-0.022,0.277,31.982,90.515,25.574
0.975,0.012,0.269,33.447,89.294,28.076
0.990,0.035,0.280,29.602,88.074,27.954
1.006,0.070,0.310,21.240,87.402,27.283
0.998,0.093,0.340,19.592,87.769,26.428
0.985,0.106,0.351,23.254,93.750,25.085
0.972,0.124,0.321,25.024,105.957,23.437
0.958,0.143,0.256,24.109,120.056,20.874
0.944,0.147,0.165,22.522,132.141,16.479
0.938,0.135,0.065,21.484,139.404,11.475
0.926,0.115,-0.027,18.311,140.137,6.836
0.935,0.091,-0.107,13.489,135.071,2.869

0.472,0.090,-1.335,1.831,-66.040,-14.221
0.222,0.124,-1.569,3.784,-110.352,-21.912
0.020,0.191,-1.761,8.789,-172.241,-33.630
-0.086,0.204,-1.858,20.691,-261.780,-48.157
-0.183,0.137,-1.685,17.700,-390.198,-60.608
-0.287,0.032,-1.145,-19.104,-538.452,-64.575
-0.294,-0.137,-0.401,-76.050,-680.359,-56.030
-0.227,-0.229,0.483,-140.320,-787.842,-34.180
-0.220,-0.222,1.432,-192.993,-846.985,-2.930
-0.137,-0.003,2.290,-209.717,-859.070,41.565
0.083,0.305,3.102,-184.875,-791.321,79.346
0.314,0.461,3.668,-118.530,-638.550,77.942
0.430,0.594,3.876,-72.083,-435.059,54.321
0.512,0.599,3.615,-41.138,-201.599,22.583
0.546,0.396,2.907,-5.188,5.493,-8.667
0.490,0.176,2.140,10.437,142.639,-33.813
0.499,0.051,1.525,5.737,215.881,-41.138
0.510,-0.024,1.062,7.080,232.239,-36.011
0.549,-0.038,0.755,12.085,202.087,-20.203
0.557,0.058,0.643,5.676,158.997,0.305
0.657,0.157,0.644,5.920,117.371,14.160
0.680,0.208,0.739,9.644,87.646,16.052
0.701,0.245,0.853,5.676,78.674,10.071
0.702,0.221,0.891,8.118,92.224,-0.488
0.704,0.172,0.849,15.564,122.314,-12.695
0.663,0.103,0.752,24.292,156.982,-22.766
0.736,0.035,0.605,34.180,189.209,-29.053
0.776,-0.031,0.475,42.175,208.740,-31.006
0.801,-0.077,0.386,45.227,210.937,-29.297
0.828,-0.110,0.340,44.861,203.369,-24.475
0.848,-0.121,0.319,45.715,190.918,-18.005
0.867,-0.115,0.337,45.410,176.208,-9.949
0.871,-0.119,0.352,47.852,163.879,-2.380
0.882,-0.100,0.349,44.128,157.532,5.188
0.875,-0.052,0.341,35.706,155.518,12.146
0.868,-0.012,0.317,33.569,155.457,17.151
0.891,0.039,0.280,35.645,154.785,21.057
0.917,0.067,0.227,38.513,153.259,22.400
0.882,0.095,0.199,36.133,149.658,20.203
0.899,0.115,0.162,33.142,145.325,18.555
0.909,0.118,0.130,35.461,140.991,16.418
0.923,0.106,0.105,33.508,133.545,13.428
0.945,0.096,0.087,26.367,125.610,10.071
0.943,0.092,0.082,18.494,117.004,8.118
0.939,0.090,0.075,15.076,109.558,6.653
0.963,0.103,0.082,14.526,103.149,5.981
0.966,0.105,0.091,15.686,98.511,4.944
0.955,0.095,0.075,16.235,97.473,2.197
0.947,0.090,0.038,11.902,99.609,-0.183
0.941,0.068,-0.018,9.094,101.379,-2.197

0.400,0.031,-1.409,10.620,-60.242,-25.024
0.142,0.018,-1.650,8.240,-106.079,-37.720
-0.054,0.066,-1.848,13.977,-178.833,-44.495
-0.155,0.131,-1.860,31.311,-280.090,-52.551
-0.437,0.051,-1.707,49.377,-408.752,-67.261
-0.500,0.025,-1.354,14.343,-546.936,-62.317
-0.608,0.055,-0.719,-57.861,-684.692,-48.157
-0.599,0.006,0.031,-116.089,-808.777,-29.785
-0.481,0.003,1.023,-184.692,-906.189,-5.432
-0.423,0.157,2.187,-258.423,-972.961,33.752
-0.256,0.577,3.519,-275.208,-972.290,76.538
-0.036,0.824,4.000,-180.725,-830.017,75.012
0.075,0.689,4.000,-70.923,-579.529,25.879
0.134,0.506,4.000,-55.237,-266.663,-35.828
0.287,0.232,3.578,-57.922,36.255,-78.125
0.195,-0.070,2.512,-12.024,236.755,-96.008
0.244,-0.091,1.673,18.250,328.125,-82.092
0.265,-0.095,1.053,46.814,339.783,-49.438
0.389,-0.029,0.672,61.462,293.945,-17.639
0.488,0.074,0.533,52.002,236.206,5.737
0.535,0.169,0.551,40.527,176.697,17.578
0.586,0.232,0.661,32.776,132.141,19.348
0.562,0.240,0.780,27.527,115.662,12.207
0.626,0.221,0.812,22.217,129.150,1.465
0.670,0.161,0.726,23.743,161.316,-11.292
0.688,0.091,0.596,26.611,193.726,-24.902
0.698,0.022,0.465,31.189,218.323,-35.645
0.711,-0.052,0.342,42.419,232.605,-40.955
0.743,-0.116,0.246,50.781,232.422,-39.612
0.804,-0.161,0.191,49.744,218.140,-34.485
0.855,-0.202,0.183,44.373,193.970,-28.381
0.893,-0.218,0.219,38.086,165.344,-19.653
0.904,-0.217,0.277,34.546,138.794,-9.277
0.897,-0.196,0.340,32.349,119.141,1.099
0.917,-0.132,0.406,28.198,106.445,11.719
0.910,-0.085,0.447,27.832,101.318,18.860
0.901,-0.041,0.453,28.259,104.187,22.156
0.909,0.000,0.430,25.513,112.671,23.132
0.916,0.029,0.402,26.184,119.019,22.827
0.918,0.020,0.369,29.968,123.230,19.653
0.924,0.023,0.340,27.344,125.122,17.456
0.943,0.018,0.310,24.048,125.854,16.174
0.937,0.021,0.287,22.339,125.732,15.625
0.948,0.029,0.262,22.827,124.756,16.724
0.950,0.047,0.247,22.644,123.596,18.066
0.955,0.062,0.223,22.522,122.925,17.883
0.959,0.054,0.197,22.705,122.559,15.564
0.971,0.048,0.180,18.555,122.986,13.000
0.951,0.042,0.159,14.709,124.451,10.864
0.946,0.033,0.113,15.076,127.319,9.155

0.481,0.155,-1.225,33.203,-90.515,-26.001
0.385,0.176,-1.409,24.963,-133.545,-36.987
0.199,0.172,-1.522,15.076,-197.083,-51.758
0.048,0.180,-1.529,4.761,-279.053,-64.758
-0.095,0.165,-1.391,-8.972,-373.535,-74.341
-0.151,0.063,-1.064,-26.306,-476.257,-82.947
-0.149,-0.129,-0.561,-57.251,-583.008,-86.975
-0.155,-0.328,0.088,-101.135,-677.307,-80.078
-0.132,-0.396,0.867,-145.203,-745.483,-51.331
-0.067,-0.291,1.720,-174.133,-781.189,-5.981
0.030,-0.022,2.437,-181.763,-775.635,40.466
0.236,0.212,3.175,-162.964,-701.294,70.740
0.399,0.428,3.694,-131.836,-560.242,68.481
0.457,0.501,3.785,-90.515,-359.314,40.405
0.503,0.415,3.354,-45.410,-128.479,7.568
0.476,0.196,2.524,-6.042,66.101,-16.174
0.443,0.036,1.749,17.456,183.350,-30.823
0.433,-0.012,1.190,26.550,229.004,-26.367
0.490,-0.035,0.767,33.936,205.750,-11.780
0.536,0.036,0.574,25.269,154.297,4.150
0.575,0.144,0.563,6.165,98.511,15.015
0.616,0.217,0.664,-7.263,54.626,15.442
0.655,0.224,0.791,-14.954,33.569,6.470
0.682,0.176,0.876,-17.517,35.828,-5.798
0.716,0.102,0.892,-15.442,53.589,-17.517
0.722,0.027,0.861,-9.155,76.416,-25.696
0.700,-0.041,0.821,-1.709,96.863,-29.358
0.780,-0.071,0.774,4.639,115.112,-28.748
0.736,-0.093,0.742,12.268,126.831,-25.330
0.768,-0.102,0.698,17.273,134.949,-21.729
0.804,-0.126,0.636,22.461,145.142,-18.066
0.751,-0.162,0.570,27.100,152.161,-15.625
0.780,-0.147,0.511,26.123,158.142,-11.047
0.789,-0.135,0.479,32.898,160.767,-4.944
0.778,-0.137,0.453,47.852,158.081,1.343
0.809,-0.094,0.426,49.377,152.954,11.353
0.827,-0.017,0.416,41.016,146.240,19.531
0.858,0.042,0.417,35.217,138.123,23.560
0.863,0.064,0.412,34.485,131.409,23.560
0.864,0.069,0.401,28.381,128.967,20.203
0.873,0.069,0.385,18.494,128.723,16.174
0.887,0.042,0.357,13.428,128.296,13.245
0.887,0.040,0.323,9.827,127.380,12.268
0.877,0.052,0.286,8.789,126.343,12.573
0.880,0.052,0.240,15.076,124.268,12.573
0.895,0.052,0.196,18.494,119.812,12.817
0.908,0.067,0.174,14.648,112.122,12.390
0.938,0.070,0.171,12.573,100.159,10.986
0.952,0.065,0.189,11.719,87.158,9.338
0.955,0.071,0.210,8.423,77.087,8.179

0.468,-0.034,-1.249,27.832,-56.213,-34.485
0.269,-0.065,-1.548,46.692,-85.510,-43.030
0.018,-0.055,-1.766,76.965,-136.963,-50.354
-0.072,-0.230,-1.915,102.783,-214.172,-71.045
-0.336,-0.435,-1.914,90.820,-322.693,-81.604
-0.583,-0.530,-1.693,24.841,-458.313,-64.331
-0.464,-0.519,-1.156,-59.143,-616.882,-18.860
-0.529,-0.371,-0.294,-138.916,-784.302,46.692
-0.508,-0.158,0.684,-234.131,-924.561,127.380
-0.517,0.463,1.889,-372.986,-1013.977,221.497
-0.419,1.267,3.014,-424.866,-1034.241,308.960
-0.435,1.620,3.876,-259.216,-917.419,294.250
-0.255,1.708,4.000,-87.524,-695.618,207.825
0.041,1.720,4.000,-46.448,-401.367,95.764
0.191,1.344,3.786,-48.950,-104.736,-25.452
0.063,0.773,2.979,-48.828,126.099,-121.277
0.097,0.419,2.164,-52.429,269.348,-162.415
0.172,0.197,1.521,-28.015,350.952,-165.894
0.224,0.007,0.938,13.550,365.784,-139.832
0.340,-0.010,0.530,37.720,339.111,-94.727
0.398,0.083,0.301,48.096,294.312,-50.049
0.505,0.182,0.188,65.002,242.859,-16.418
0.569,0.221,0.152,85.449,191.406,2.441
0.648,0.269,0.172,86.853,148.254,11.230
0.701,0.289,0.222,75.745,117.676,11.475
0.743,0.282,0.282,62.378,96.802,5.737
0.773,0.253,0.344,49.805,83.679,-0.854
0.798,0.231,0.411,38.757,76.416,-5.432
0.837,0.204,0.471,32.166,71.899,-8.606
0.880,0.192,0.548,27.527,67.932,-9.399
0.880,0.181,0.638,23.926,66.223,-9.277
0.883,0.182,0.719,19.470,70.007,-9.338
0.859,0.178,0.763,16.357,83.008,-10.864
0.839,0.164,0.754,17.944,105.103,-13.794
0.823,0.136,0.702,21.606,130.493,-15.503
0.804,0.091,0.611,26.001,154.968,-16.663
0.800,0.059,0.505,25.940,173.462,-13.977
0.805,0.049,0.410,24.414,181.702,-7.446
0.838,0.057,0.336,24.719,181.213,-1.099
0.875,0.082,0.296,25.635,173.462,5.371
0.869,0.111,0.267,28.748,162.231,11.414
0.877,0.166,0.243,28.259,150.696,17.395
0.871,0.217,0.227,25.391,139.526,20.935
0.887,0.249,0.214,22.400,129.333,20.874
0.927,0.270,0.219,16.052,119.263,18.127
0.957,0.279,0.247,8.484,109.436,12.939
0.943,0.260,0.283,3.235,104.187,5.798
0.925,0.222,0.290,0.916,107.605,-1.648
0.930,0.183,0.263,-1.282,117.249,-7.812
0.932,0.143,0.216,-1.709,126.892,-10.986

0.342,0.257,-1.345,38.513,-56.274,-30.151
0.246,0.253,-1.585,56.396,-102.600,-43.640
0.157,0.218,-1.746,65.796,-180.908,-57.739
0.072,0.161,-1.725,50.476,-287.598,-70.068
-0.069,0.061,-1.516,20.447,-406.555,-79.956
-0.175,-0.065,-1.133,-10.925,-523.376,-80.750
-0.189,-0.184,-0.594,-46.021,-627.625,-72.449
-0.182,-0.258,0.032,-77.698,-708.618,-54.443
-0.203,-0.246,0.683,-94.971,-754.272,-23.560
-0.079,-0.147,1.295,-97.290,-764.648,16.174
0.091,0.004,1.884,-91.675,-747.864,54.199
0.262,0.259,2.469,-96.741,-708.435,82.520
0.315,0.573,3.055,-90.942,-616.150,93.811
0.411,0.736,3.407,-56.091,-484.924,78.125
0.415,0.763,3.445,-28.992,-308.105,38.147
0.500,0.661,3.106,-18.372,-114.868,-6.104
0.516,0.409,2.467,-3.967,48.889,-43.701
0.511,0.181,1.839,3.479,152.283,-66.895
0.523,0.042,1.378,2.136,201.233,-69.763
0.537,-0.047,1.018,1.648,200.073,-58.716
0.572,-0.042,0.796,-1.587,174.500,-39.246
0.601,0.038,0.688,-5.310,145.874,-17.578
0.641,0.108,0.648,1.648,122.559,-4.639
0.680,0.134,0.654,12.939,105.957,-1.465
0.711,0.133,0.677,16.846,98.022,-3.723
0.751,0.119,0.693,16.296,98.999,-8.789
0.760,0.096,0.695,18.250,106.934,-13.611
0.776,0.062,0.654,22.705,119.873,-16.602
0.785,0.043,0.594,24.109,131.714,-17.029
0.808,0.017,0.535,22.339,140.442,-16.785
0.821,-0.019,0.480,19.104,142.761,-16.113
0.791,-0.014,0.478,10.315,141.907,-13.306
0.818,-0.016,0.460,11.169,144.775,-10.620
0.833,-0.049,0.416,22.522,148.499,-8.118
0.836,-0.041,0.379,21.240,149.353,-3.357
0.852,0.001,0.362,16.174,146.851,1.465
0.876,0.026,0.350,20.935,139.893,6.226
0.869,0.041,0.342,25.574,132.263,9.766
0.894,0.066,0.341,23.010,127.014,11.780
0.929,0.088,0.363,20.691,122.437,12.756
0.926,0.075,0.382,24.170,117.493,12.756
0.931,0.101,0.402,21.057,115.967,14.465
0.911,0.134,0.399,17.700,117.920,16.724
0.912,0.159,0.378,18.616,123.230,17.334
0.927,0.168,0.353,18.433,130.371,16.602
0.922,0.154,0.300,17.395,138.733,14.221
0.913,0.163,0.228,11.780,146.484,11.292
0.903,0.171,0.136,8.057,150.818,7.690
0.900,0.170,0.065,7.385,148.499,4.333
0.904,0.161,0.015,8.118,142.029,2.014

0.432,0.133,-1.354,36.560,-69.275,-30.640
0.249,0.107,-1.554,44.861,-115.601,-46.143
0.117,0.101,-1.696,45.288,-183.655,-53.284
0.022,0.078,-1.682,37.781,-277.527,-56.641
-0.050,0.004,-1.459,21.057,-390.625,-56.885
-0.120,-0.055,-1.042,-10.742,-502.441,-54.199
-0.188,-0.167,-0.554,-41.504,-596.924,-50.659
-0.190,-0.246,-0.041,-62.317,-671.509,-35.583
-0.141,-0.225,0.555,-92.285,-725.342,-5.310
-0.076,-0.110,1.209,-124.268,-760.742,27.771
-0.031,0.050,1.917,-136.719,-771.423,56.824
0.024,0.311,2.506,-132.812,-746.216,80.994
0.184,0.527,3.058,-106.567,-649.963,84.961
0.199,0.604,3.406,-62.195,-510.803,60.852
0.255,0.598,3.459,-36.926,-336.243,25.818
0.313,0.483,3.195,-24.902,-150.146,-5.371
0.388,0.280,2.668,-11.230,6.287,-28.625
0.361,0.086,2.108,-0.061,108.643,-42.419
0.369,-0.022,1.666,2.625,164.062,-40.405
0.364,-0.056,1.343,9.766,177.490,-23.071
0.443,0.011,1.106,18.311,163.391,2.747
0.486,0.131,0.996,20.874,140.015,23.376
0.521,0.254,0.983,15.442,115.723,32.837
0.560,0.321,1.006,5.737,101.807,29.419
0.571,0.336,1.023,-4.150,103.394,16.663
0.550,0.299,0.999,-11.230,119.812,1.038
0.586,0.248,0.903,-11.780,147.034,-12.634
0.637,0.189,0.772,-4.822,176.819,-22.644
0.662,0.118,0.645,6.470,200.256,-30.212
0.695,0.043,0.529,14.893,214.233,-35.461
0.695,0.002,0.438,18.066,220.032,-36.621
0.711,-0.025,0.360,23.437,217.468,-33.203
0.771,-0.032,0.310,28.137,206.787,-26.733
0.830,-0.062,0.285,29.663,190.063,-20.386
0.845,-0.090,0.280,23.743,171.631,-16.174
0.849,-0.072,0.295,10.010,155.762,-9.949
0.845,-0.063,0.318,6.226,142.090,-3.174
0.868,-0.043,0.342,9.949,132.324,3.357
0.874,-0.005,0.360,13.794,126.526,10.864
0.864,0.043,0.365,17.517,125.732,17.212
0.884,0.099,0.349,19.958,128.113,20.935
0.876,0.133,0.327,21.423,131.104,21.057
0.867,0.157,0.297,22.644,134.705,18.250
0.881,0.163,0.252,22.766,137.695,15.503
0.895,0.157,0.201,19.714,137.024,12.939
0.917,0.161,0.175,13.977,132.507,10.254
0.927,0.151,0.166,11.475,125.549,7.507
0.916,0.124,0.144,12.695,119.568,4.761
0.920,0.132,0.125,7.385,115.845,4.578
0.931,0.152,0.113,1.648,112.366,4.639

0.047,0.244,-1.601,47.607,-42.480,-43.030
-0.141,0.308,-1.979,93.079,-89.844,-69.458
-0.309,0.200,-2.257,141.602,-201.111,-106.934
-0.383,-0.027,-2.203,137.695,-389.648,-129.700
-0.445,-0.291,-1.549,29.785,-619.324,-138.489
-0.703,-0.586,-0.519,-102.966,-839.539,-139.526
-0.902,-0.616,0.659,-209.412,-1001.404,-111.023
-0.947,-0.396,1.849,-256.470,-1091.003,-36.743
-0.971,-0.141,2.923,-222.778,-1105.347,54.749
-0.722,0.201,3.957,-161.682,-1023.193,120.422
-0.445,0.651,4.000,-123.474,-844.910,137.024
-0.233,0.844,4.000,-71.228,-579.285,106.323
-0.091,0.866,4.000,-44.739,-256.958,47.913
0.022,0.644,3.742,-39.185,57.312,-8.911
-0.052,0.314,2.690,-23.621,273.499,-56.396
0.058,0.117,1.834,-15.808,388.672,-79.468
0.074,-0.002,1.222,6.165,424.988,-77.393
0.218,-0.056,0.762,31.982,391.418,-53.955
0.334,-0.002,0.516,39.307,340.454,-22.888
0.431,0.073,0.408,41.748,280.457,-0.305
0.478,0.123,0.401,40.161,223.694,12.878
0.555,0.192,0.447,27.405,182.922,18.677
0.613,0.224,0.500,16.663,161.560,13.916
0.651,0.213,0.522,12.695,155.334,2.747
0.683,0.178,0.504,10.803,159.851,-9.766
0.713,0.119,0.449,11.780,168.762,-21.729
0.744,0.044,0.379,14.404,175.171,-29.846
0.779,-0.017,0.331,13.794,174.133,-33.508
0.810,-0.070,0.311,11.292,166.138,-33.813
0.831,-0.112,0.303,10.925,152.527,-31.006
0.844,-0.125,0.310,9.949,137.634,-25.024
0.879,-0.134,0.308,8.789,124.939,-17.639
0.859,-0.114,0.315,9.888,114.075,-10.681
0.870,-0.093,0.301,14.832,107.483,-4.639
0.871,-0.068,0.271,21.606,102.478,0.000
0.877,-0.052,0.242,24.780,96.985,3.662
0.877,-0.040,0.216,22.339,91.736,7.263
0.887,-0.010,0.196,16.357,86.487,10.315
0.890,0.006,0.168,16.052,79.834,11.169
0.895,0.010,0.155,17.334,72.449,10.376
0.906,0.020,0.165,12.756,64.087,9.949
0.929,0.036,0.195,5.859,53.772,9.705
0.949,0.042,0.234,2.197,42.664,9.460
0.951,0.052,0.268,0.000,33.508,9.583
0.946,0.070,0.290,-0.366,28.198,8.911
0.938,0.082,0.306,0.488,27.832,7.507
0.937,0.083,0.291,2.563,30.945,5.127
0.932,0.075,0.266,2.075,34.180,3.113
0.937,0.053,0.240,-0.854,35.828,1.404
0.942,0.035,0.229,-5.188,37.048,-0.854

0.062,0.192,-1.994,111.267,111.328,-20.386
-0.193,0.167,-2.699,139.038,76.294,-40.771
-0.363,0.107,-3.248,135.071,-34.119,-70.251
-0.585,-0.031,-3.326,107.849,-240.234,-95.215
-0.979,-0.271,-2.732,47.424,-509.033,-97.290
-1.328,-0.349,-1.719,-51.392,-766.907,-62.134
-1.496,-0.204,-0.582,-161.438,-963.928,4.578
-1.469,0.130,0.638,-255.737,-1088.623,79.956
-1.352,0.460,1.957,-311.096,-1135.193,141.907
-1.131,0.863,3.127,-323.486,-1118.225,192.383
-0.769,1.392,4.000,-271.118,-989.075,195.557
-0.394,1.360,4.000,-140.076,-773.315,115.906
-0.215,1.010,4.000,-77.271,-470.154,0.854
-0.086,0.493,4.000,-78.918,-129.578,-79.163
-0.022,0.027,3.172,-38.147,150.085,-110.229
-0.001,-0.165,2.101,33.997,314.819,-107.788
0.063,-0.175,1.343,99.854,373.230,-66.711
0.219,-0.086,0.804,149.475,347.473,-4.272
0.342,0.114,0.544,160.461,286.194,44.250
0.460,0.299,0.483,142.944,213.135,68.542
0.551,0.397,0.537,116.394,143.921,72.021
0.594,0.423,0.662,73.792,92.102,62.622
0.689,0.465,0.801,22.888,63.232,46.387
0.712,0.434,0.894,-5.859,57.068,22.461
0.716,0.335,0.904,-19.043,67.139,-4.822
0.731,0.215,0.861,-31.067,87.158,-26.001
0.736,0.122,0.787,-34.790,107.910,-36.987
0.742,0.046,0.687,-21.729,123.047,-38.574
0.754,0.014,0.593,-4.639,131.592,-34.119
0.770,0.017,0.508,9.155,134.583,-26.245
0.780,0.025,0.442,20.813,132.202,-18.738
0.814,0.031,0.382,26.123,125.732,-14.099
0.851,0.041,0.326,22.461,115.540,-12.085
0.863,0.031,0.300,14.954,97.900,-12.390
0.876,0.023,0.310,5.249,76.904,-12.817
0.890,0.013,0.344,-1.160,56.152,-11.902
0.900,0.003,0.395,-2.686,40.039,-10.498
0.908,-0.014,0.453,-2.747,28.198,-8.911
0.929,-0.017,0.514,-5.249,21.423,-7.141
0.977,0.012,0.561,-9.399,22.217,-5.127
1.006,0.041,0.583,-3.906,28.809,-3.906
1.037,0.073,0.597,5.920,38.574,-2.441
1.047,0.088,0.614,16.602,48.401,-2.930
1.036,0.094,0.644,23.193,57.373,-4.150
1.012,0.082,0.669,25.146,68.115,-6.042
0.962,0.047,0.674,24.231,81.970,-9.216
0.938,0.013,0.659,18.921,98.511,-13.489
0.926,-0.033,0.617,14.343,114.807,-16.479
0.870,-0.068,0.558,12.146,129.639,-17.395
0.867,-0.077,0.469,12.817,142.700,-16.296

0.162,0.164,-1.638,9.460,29.480,-34.119
0.004,0.124,-2.056,23.254,-9.766,-58.533
-0.163,0.046,-2.340,49.927,-105.530,-81.421
-0.389,-0.058,-2.407,63.660,-261.841,-88.318
-0.554,-0.138,-2.064,24.475,-453.186,-81.360
-0.715,-0.221,-1.369,-32.898,-644.897,-70.190
-0.839,-0.321,-0.593,-72.754,-807.129,-50.598
-0.859,-0.332,0.219,-126.099,-921.570,-18.188
-0.801,-0.201,1.117,-196.472,-982.483,23.376
-0.704,0.001,2.042,-240.662,-1003.601,67.871
-0.524,0.359,2.929,-249.573,-972.900,112.061
-0.178,0.686,3.807,-211.426,-856.018,131.348
-0.003,0.881,4.000,-149.170,-681.641,100.891
0.039,0.888,4.000,-110.901,-441.650,41.992
0.120,0.702,3.972,-82.947,-166.687,-13.733
0.194,0.383,3.131,-42.114,79.590,-47.607
0.194,0.149,2.273,5.554,236.816,-65.674
0.258,0.035,1.636,40.039,308.044,-59.082
0.294,-0.022,1.172,66.467,310.913,-32.898
0.375,0.029,0.910,69.275,268.677,-2.930
0.451,0.136,0.827,50.964,220.154,19.836
0.509,0.214,0.841,34.668,177.307,29.053
0.548,0.253,0.870,18.555,151.001,26.245
0.561,0.274,0.876,3.723,143.616,16.418
0.563,0.255,0.827,1.526,151.184,4.089
0.576,0.207,0.726,7.568,166.260,-5.981
0.588,0.157,0.602,12.268,182.800,-14.526
0.611,0.102,0.489,16.113,194.946,-20.996
0.670,0.061,0.408,19.775,198.853,-24.414
0.739,0.008,0.353,24.170,193.359,-25.085
0.776,-0.025,0.321,24.353,180.298,-23.865
0.798,-0.044,0.298,22.278,162.415,-20.508
0.821,-0.058,0.290,18.494,143.188,-15.503
0.842,-0.061,0.290,13.123,126.099,-10.803
0.857,-0.066,0.291,8.789,110.962,-7.141
0.855,-0.070,0.292,6.653,96.008,-3.906
0.866,-0.064,0.297,4.944,82.581,-1.831
0.879,-0.084,0.296,6.836,69.824,-0.854
0.879,-0.080,0.312,4.944,60.120,0.854
0.866,-0.059,0.339,1.648,53.772,4.272
0.874,-0.036,0.360,6.226,47.974,8.789
0.899,-0.023,0.374,13.916,42.908,13.489
0.908,-0.005,0.387,17.029,39.490,16.846
0.905,0.029,0.394,13.000,39.734,19.531
0.891,0.056,0.388,11.047,42.542,20.386
0.884,0.048,0.372,8.179,46.753,20.508
0.920,0.073,0.355,0.916,49.805,21.545
0.939,0.079,0.339,-1.770,49.683,20.020
0.932,0.071,0.333,-2.136,47.729,16.052
0.914,0.070,0.343,-4.089,45.776,12.756

0.099,0.058,-1.888,51.208,-107.239,-9.338
-0.071,0.068,-1.940,74.890,-231.323,-12.695
-0.317,0.059,-1.744,78.064,-373.901,-19.409
-0.460,0.051,-1.295,53.101,-515.686,-23.071
-0.496,0.005,-0.714,11.963,-648.437,-22.583
-0.540,-0.094,-0.023,-33.081,-766.418,-18.677
-0.523,-0.097,0.836,-97.046,-852.417,0.183
-0.474,0.116,1.766,-169.312,-891.663,37.781
-0.330,0.397,2.458,-204.834,-875.366,77.515
-0.144,0.719,3.101,-187.988,-778.748,93.079
0.063,0.976,3.439,-150.330,-626.343,79.651
0.233,1.096,3.440,-116.150,-440.491,38.696
0.359,0.897,3.138,-73.914,-241.394,-20.813
0.396,0.514,2.666,-41.626,-63.171,-71.350
0.449,0.178,2.146,-8.423,64.636,-92.651
0.469,-0.033,1.691,32.227,132.385,-86.304
0.492,-0.091,1.359,55.176,148.743,-54.993
0.520,-0.012,1.157,56.580,130.066,-18.311
0.533,0.110,1.077,51.025,97.839,6.104
0.573,0.237,1.089,36.438,70.618,16.235
0.624,0.301,1.129,21.973,56.641,13.977
0.655,0.287,1.151,13.794,56.274,2.686
0.651,0.250,1.147,2.991,68.481,-9.338
0.642,0.202,1.099,-1.709,87.585,-19.165
0.646,0.153,1.033,2.258,108.398,-24.963
0.669,0.100,0.957,10.986,126.587,-27.283
0.687,0.055,0.875,16.296,141.113,-28.015
0.692,0.017,0.798,18.860,152.954,-28.503
0.686,-0.039,0.720,21.790,163.818,-28.992
0.673,-0.063,0.650,21.729,174.805,-27.466
0.720,-0.080,0.579,24.536,180.786,-21.545
0.765,-0.096,0.526,28.503,180.054,-13.306
0.762,-0.076,0.496,26.001,175.537,-5.066
0.751,-0.037,0.468,26.428,169.006,1.221
0.749,-0.024,0.422,32.104,164.062,6.165
0.751,0.029,0.394,33.630,162.170,9.583
0.781,0.077,0.374,36.987,157.410,13.550
0.789,0.101,0.353,43.152,147.949,15.991
0.808,0.135,0.339,39.063,137.512,16.357
0.829,0.158,0.340,32.104,126.709,14.526
0.839,0.146,0.352,28.687,116.333,10.559
0.817,0.116,0.361,25.757,110.657,5.371
0.830,0.111,0.356,18.433,109.985,1.465
0.862,0.095,0.335,16.418,108.521,-0.488
0.873,0.059,0.322,17.517,105.347,-1.343
0.854,0.065,0.344,13.672,105.713,-1.465
0.873,0.076,0.339,16.907,109.558,-0.854
0.885,0.073,0.314,28.015,111.450,0.916
0.901,0.087,0.285,30.273,112.122,2.136
0.916,0.095,0.263,27.283,110.352,0.916

-0.252,0.203,-2.096,58.350,67.871,-42.297
-0.507,0.333,-2.612,95.520,-3.540,-77.881
-0.804,0.300,-2.914,138.916,-162.476,-122.253
-1.035,0.007,-2.783,128.479,-395.935,-168.823
-1.081,-0.344,-2.037,23.987,-671.326,-197.937
-1.323,-0.658,-0.983,-86.304,-945.312,-193.726
-1.545,-0.742,0.099,-176.392,-1171.753,-159.546
-1.648,-0.663,1.295,-268.250,-1324.280,-92.590
-1.747,-0.164,2.537,-352.539,-1416.504,16.541
-1.824,0.453,3.850,-373.657,-1412.292,118.286
-1.486,1.309,4.000,-345.886,-1228.943,183.899
-0.776,1.840,4.000,-231.201,-880.310,188.599
-0.336,1.467,4.000,-47.913,-417.786,93.933
-0.303,0.891,4.000,8.850,47.180,-19.775
-0.369,0.364,3.001,33.508,389.771,-84.656
-0.274,0.104,1.952,99.304,576.355,-98.999
-0.125,0.010,1.252,171.265,648.132,-78.796
0.117,-0.010,0.709,216.614,635.132,-35.400
0.418,0.084,0.282,212.646,580.994,13.306
0.581,0.151,-0.001,196.533,479.736,51.941
0.708,0.168,-0.102,156.067,357.178,74.890
0.766,0.260,-0.028,84.351,239.563,88.867
0.799,0.364,0.147,21.362,139.099,87.646
0.809,0.376,0.338,-3.845,68.176,67.383
0.800,0.329,0.483,-13.245,33.447,35.400
0.798,0.229,0.563,-24.048,28.381,2.991
0.794,0.126,0.603,-36.621,39.490,-18.677
0.788,0.025,0.593,-35.156,56.763,-29.480
0.800,-0.050,0.545,-22.522,74.890,-31.067
0.793,-0.071,0.479,-11.780,86.975,-24.353
0.788,-0.069,0.406,-3.235,92.529,-16.113
0.769,-0.078,0.348,0.183,93.506,-10.376
0.777,-0.062,0.310,-2.808,90.820,-4.822
0.794,-0.067,0.274,-3.601,83.252,-1.648
0.806,-0.068,0.258,-4.761,71.777,-0.732
0.814,-0.062,0.272,-9.338,57.556,1.038
0.813,-0.031,0.318,-11.353,43.762,5.005
0.833,-0.008,0.359,-8.850,31.799,10.742
0.871,0.022,0.380,-6.470,22.644,15.930
0.872,0.063,0.408,-7.324,15.747,16.846
0.866,0.075,0.413,-5.188,16.174,13.916
0.861,0.096,0.399,-3.113,21.118,11.658
0.879,0.102,0.388,0.183,24.475,10.254
0.906,0.102,0.398,3.357,25.574,9.094
0.920,0.097,0.404,4.517,23.254,7.324
0.915,0.078,0.428,3.357,18.799,4.883
0.915,0.069,0.456,-1.648,15.381,2.075
0.928,0.041,0.477,-5.066,13.794,-1.404
0.941,0.010,0.500,-6.287,13.062,-4.761
0.950,-0.023,0.530,-7.812,13.123,-6.348

-0.220,0.752,-2.241,55.786,41.565,-66.589
-0.377,0.770,-2.721,88.318,-96.924,-118.713
-0.599,0.607,-2.674,68.115,-327.026,-173.157
-0.981,0.246,-1.862,-27.527,-604.370,-221.924
-1.201,-0.282,-0.799,-124.390,-860.046,-257.019
-1.165,-0.679,0.310,-196.899,-1055.359,-257.202
-0.704,-0.844,1.510,-284.180,-1164.001,-217.041
-0.696,-0.672,2.758,-381.897,-1203.613,-132.568
-0.671,-0.237,3.908,-406.799,-1125.488,-30.701
-0.016,0.348,4.000,-347.717,-894.104,51.880
0.512,0.710,4.000,-223.206,-553.101,84.290
0.522,0.702,4.000,-99.304,-186.462,54.565
0.401,0.494,3.390,-8.606,132.324,17.029
0.342,0.182,2.403,79.651,347.778,-4.883
0.334,0.074,1.693,120.361,446.350,-7.446
0.433,0.021,1.154,147.644,467.468,-1.404
0.525,0.019,0.745,157.715,430.969,16.052
0.637,0.080,0.477,138.123,372.986,34.485
0.669,0.105,0.296,109.375,300.354,44.495
0.649,0.166,0.253,67.749,231.018,46.692
0.659,0.189,0.261,35.950,179.077,42.358
0.670,0.170,0.297,25.635,144.653,33.630
0.699,0.141,0.316,22.400,128.784,25.818
0.711,0.097,0.308,23.010,125.488,18.250
0.743,0.062,0.297,24.048,126.343,10.864
0.811,0.003,0.277,26.794,126.831,6.348
0.828,-0.034,0.262,25.757,128.052,5.371
0.837,-0.058,0.236,23.376,130.920,7.690
0.843,-0.057,0.198,20.325,133.484,12.451
0.855,-0.053,0.152,17.212,134.583,16.113
0.871,-0.058,0.097,14.832,132.202,17.212
0.887,-0.036,0.060,9.888,124.023,17.456
0.900,-0.010,0.052,10.010,108.521,17.944
0.919,-0.004,0.062,14.099,86.487,18.921
0.928,-0.003,0.098,12.451,64.026,18.372
0.953,0.001,0.157,5.615,44.861,17.029
0.955,0.005,0.234,4.028,28.931,17.700
0.966,0.008,0.282,7.019,20.020,18.311
0.979,0.032,0.305,6.165,19.836,17.822
0.963,0.055,0.320,4.639,23.010,17.700
0.937,0.074,0.325,5.859,30.090,17.090
0.936,0.101,0.313,7.812,39.673,16.479
0.959,0.114,0.293,10.559,47.363,15.686
0.964,0.091,0.270,11.230,51.514,13.123
0.959,0.086,0.253,3.357,55.786,8.118
0.968,0.077,0.234,-1.221,58.472,3.662
0.987,0.057,0.217,1.282,57.983,1.404
0.982,0.047,0.214,4.578,56.274,0.916
0.986,0.052,0.212,6.958,54.260,1.770
0.997,0.055,0.205,7.996,51.514,3.235

-0.215,0.368,-2.189,41.626,68.542,-47.180
-0.331,0.292,-2.687,46.143,-35.156,-84.717
-0.494,0.158,-2.813,42.419,-237.061,-110.291
-0.646,-0.120,-2.320,-1.831,-488.831,-129.211
-0.862,-0.412,-1.481,-66.162,-736.389,-128.479
-1.014,-0.572,-0.574,-136.169,-932.495,-103.821
-1.086,-0.619,0.383,-174.194,-1068.420,-63.293
-1.055,-0.496,1.393,-196.350,-1135.620,-5.737
-0.829,-0.158,2.418,-225.952,-1143.005,60.242
-0.509,0.322,3.452,-240.173,-1079.407,113.281
-0.272,0.888,4.000,-238.586,-915.283,131.470
0.036,1.266,4.000,-204.163,-657.776,111.023
0.282,1.286,4.000,-128.784,-339.111,65.918
0.252,0.930,3.726,-42.419,-23.315,6.409
0.189,0.531,2.804,17.517,216.492,-36.865
0.204,0.260,2.001,56.763,358.032,-52.979
0.300,0.137,1.401,82.947,418.396,-46.570
0.379,0.049,0.863,100.037,401.794,-27.405
0.454,0.094,0.563,93.018,348.877,-3.296
0.502,0.177,0.429,71.594,290.771,15.015
0.560,0.211,0.363,57.983,240.051,20.264
0.584,0.241,0.326,47.852,204.712,16.663
0.614,0.201,0.285,46.936,182.434,7.324
0.654,0.153,0.243,47.424,168.762,-0.061
0.702,0.106,0.200,45.166,155.823,-3.296
0.730,0.063,0.175,41.809,140.930,-6.836
0.755,0.019,0.160,36.194,124.023,-7.568
0.797,-0.014,0.161,26.917,106.873,-6.287
0.852,-0.042,0.173,13.977,88.684,-4.150
0.884,-0.041,0.213,1.221,70.129,-1.770
0.897,-0.034,0.275,-5.066,51.392,1.038
0.898,-0.018,0.348,-6.287,36.011,4.272
0.889,-0.005,0.416,-3.845,28.198,6.226
0.896,0.008,0.477,0.488,25.330,7.141
0.886,0.014,0.517,6.409,26.367,8.179
0.889,0.011,0.546,12.573,31.311,8.240
0.886,0.007,0.570,15.442,39.856,8.179
0.871,0.013,0.579,17.029,49.866,10.010
0.900,0.036,0.576,18.860,59.509,13.855
0.909,0.065,0.573,20.630,67.810,17.761
0.909,0.103,0.575,22.827,74.829,20.569
0.903,0.128,0.547,24.963,82.947,22.400
0.911,0.164,0.511,23.071,93.140,20.996
0.914,0.181,0.482,21.729,102.539,17.090
0.910,0.167,0.442,25.024,109.375,12.207
0.911,0.161,0.404,22.705,114.075,8.118
0.920,0.141,0.360,18.799,115.540,5.249
0.915,0.115,0.315,14.832,115.173,1.770
0.912,0.100,0.268,9.399,114.563,-1.221
0.919,0.081,0.228,8.423,111.572,-2.136

