aX,aY,aZ,gX,gY,gZ
0.454,0.059,0.750,-203.674,-67.505,-91.003
0.501,0.059,0.834,-70.007,-19.958,-28.381
0.506,0.054,0.834,-12.634,-0.305,-4.456
0.505,0.048,0.831,-2.258,3.418,-0.977
0.506,0.046,0.824,-0.305,3.784,-0.122
0.506,0.055,0.819,0.244,3.906,1.038
0.504,0.060,0.816,0.793,3.906,1.587
0.501,0.067,0.811,0.977,3.845,1.892
0.500,0.075,0.809,1.099,3.296,2.014
0.501,0.078,0.809,0.916,2.563,1.709
0.501,0.079,0.810,0.427,1.953,1.282
0.502,0.075,0.812,0.000,1.587,1.160
0.499,0.075,0.817,-0.183,1.160,1.099
0.500,0.076,0.825,0.427,0.671,1.343
0.500,0.082,0.836,0.732,0.244,1.465
0.500,0.083,0.844,1.099,0.305,1.099
0.498,0.088,0.849,1.221,0.732,0.977
0.498,0.086,0.843,1.587,1.282,0.610
0.500,0.085,0.841,0.854,1.831,0.061
0.500,0.079,0.840,0.366,1.404,-0.305
0.501,0.076,0.845,-0.732,1.038,-0.549
0.498,0.075,0.853,-1.099,0.732,-0.488
0.500,0.074,0.859,-0.366,0.793,-0.549
0.504,0.066,0.860,-0.854,1.160,-0.977
0.501,0.051,0.860,-0.671,1.831,-1.282
0.501,0.049,0.856,-0.488,2.808,-1.038
0.503,0.052,0.849,0.366,3.235,-0.610
0.508,0.048,0.838,1.038,3.113,-0.427
0.505,0.045,0.836,-0.122,3.052,-0.183
0.502,0.049,0.833,0.061,3.235,0.610
0.502,0.058,0.831,1.038,3.235,1.343
0.502,0.059,0.829,0.366,3.296,1.282
0.501,0.056,0.831,-0.122,2.686,0.793
0.500,0.058,0.839,0.061,1.892,0.916
0.501,0.061,0.842,0.366,1.770,0.854
0.502,0.064,0.839,0.549,2.563,0.671
0.503,0.060,0.835,1.343,2.991,0.305
0.501,0.060,0.835,1.282,2.991,0.549
0.501,0.067,0.835,1.404,2.747,0.916
0.502,0.071,0.832,1.709,2.808,1.038
0.501,0.073,0.829,1.099,2.991,0.977
0.498,0.078,0.831,0.122,2.808,1.038
0.501,0.083,0.837,0.671,1.892,0.732
0.501,0.082,0.843,0.366,1.526,-0.122
0.505,0.076,0.842,0.183,1.953,-0.916
0.503,0.062,0.839,-0.183,2.563,-1.099
0.502,0.061,0.836,-0.549,2.991,-0.671
0.501,0.063,0.833,0.183,2.747,-0.122
0.506,0.068,0.828,0.366,2.808,0.061
0.505,0.068,0.827,1.160,2.747,-0.122

0.626,0.168,1.247,33.142,52.612,-13.977
0.673,0.173,1.383,41.443,73.059,-16.418
0.685,0.190,1.509,50.293,104.675,-15.076
0.665,0.145,1.577,65.857,146.851,-13.611
0.674,0.149,1.664,72.571,194.702,-7.629
0.616,0.092,1.754,82.153,245.667,0.122
0.586,0.071,1.836,89.417,299.438,8.606
0.496,0.096,1.869,89.661,361.267,18.738
0.444,0.032,1.750,88.318,434.021,13.000
0.297,-0.038,1.595,67.566,501.282,8.423
0.153,-0.092,1.339,49.011,564.331,10.193
0.147,-0.151,0.978,35.828,617.920,10.315
0.171,-0.137,0.596,19.897,647.766,11.536
0.169,-0.091,0.207,9.033,651.062,16.174
0.152,-0.003,-0.204,11.597,641.174,16.174
0.118,0.046,-0.653,26.306,615.784,11.169
0.164,0.108,-1.080,32.532,569.214,5.432
0.224,0.143,-1.409,26.794,492.554,-1.953
0.338,0.102,-1.513,17.029,385.437,-11.169
0.415,-0.014,-1.369,6.348,268.677,-20.142
0.483,-0.162,-1.119,-5.432,170.654,-24.231
0.561,-0.254,-0.863,-9.949,104.004,-20.020
0.655,-0.282,-0.678,-8.484,66.467,-9.460
0.689,-0.260,-0.565,-8.667,49.683,3.601
0.707,-0.214,-0.572,-11.536,45.410,15.808
0.672,-0.182,-0.650,-15.747,41.626,23.071
0.642,-0.150,-0.755,-23.132,32.837,27.100
0.642,-0.117,-0.849,-30.701,16.724,29.663
0.670,-0.077,-0.885,-37.720,-8.484,30.945
0.709,-0.048,-0.850,-42.786,-41.504,30.151
0.742,-0.038,-0.763,-44.800,-75.806,27.771
0.781,-0.039,-0.664,-47.180,-105.591,24.658
0.817,-0.042,-0.578,-50.171,-128.296,22.583
0.786,-0.054,-0.510,-53.345,-145.020,21.240
0.817,0.043,-0.442,-54.504,-156.677,22.827
0.823,0.061,-0.390,-38.757,-164.795,14.771
0.839,0.045,-0.346,-20.996,-169.128,0.183
0.847,0.026,-0.296,-13.977,-173.523,-10.071
0.863,0.042,-0.246,-9.216,-177.917,-16.602
0.900,0.032,-0.194,-0.488,-183.960,-24.353
0.949,-0.018,-0.136,6.714,-192.261,-33.569
1.034,-0.058,-0.050,0.671,-200.806,-38.269
1.082,-0.108,0.062,-5.493,-209.839,-37.842
1.082,-0.161,0.184,-9.766,-213.562,-35.278
1.083,-0.201,0.287,-15.869,-205.688,-30.640
1.071,-0.231,0.361,-19.714,-187.378,-24.109
1.057,-0.252,0.406,-20.447,-161.316,-17.456
1.044,-0.255,0.432,-18.860,-129.639,-9.399
1.044,-0.253,0.424,-10.925,-96.313,-2.014
1.035,-0.250,0.390,-0.427,-63.477,4.700

1.111,0.022,0.775,49.316,47.974,7.263
1.019,-0.006,0.880,62.073,74.219,6.348
1.051,0.043,1.000,62.073,101.990,8.179
1.148,0.095,1.165,56.091,130.859,13.611
1.178,0.078,1.364,58.228,167.053,14.771
1.077,0.039,1.444,51.086,219.604,15.503
0.867,0.009,1.424,39.307,303.406,18.005
0.765,-0.002,1.185,35.095,400.879,20.569
0.642,0.019,0.882,29.724,488.464,23.437
0.458,0.047,0.483,27.039,554.993,23.010
0.420,0.115,-0.026,25.146,596.985,20.630
0.333,0.192,-0.521,34.119,609.863,14.404
0.243,0.261,-0.968,53.406,587.524,6.104
0.224,0.290,-1.322,64.026,536.621,-2.319
0.238,0.248,-1.582,52.490,461.914,-14.648
0.283,0.156,-1.691,27.466,367.859,-28.137
0.296,0.001,-1.640,8.179,263.550,-36.438
0.375,-0.119,-1.456,-6.409,165.344,-33.142
0.443,-0.227,-1.204,-10.803,85.754,-23.254
0.467,-0.266,-0.969,-13.306,35.217,-9.399
0.470,-0.255,-0.862,-13.306,15.991,5.188
0.463,-0.207,-0.882,-12.817,12.939,18.433
0.437,-0.156,-0.973,-14.526,9.521,27.588
0.393,-0.108,-1.083,-19.653,-1.404,34.180
0.374,-0.073,-1.177,-30.457,-20.691,38.452
0.389,-0.025,-1.206,-41.748,-50.720,41.199
0.408,0.017,-1.166,-47.791,-88.440,43.152
0.433,0.055,-1.080,-49.866,-126.099,41.565
0.464,0.076,-0.982,-48.828,-160.095,35.828
0.495,0.080,-0.886,-43.640,-188.904,27.039
0.507,0.098,-0.794,-37.109,-212.036,16.602
0.573,0.108,-0.729,-26.611,-229.736,4.150
0.618,0.078,-0.665,-14.587,-247.375,-8.606
0.662,0.027,-0.588,-10.193,-264.038,-20.691
0.699,-0.017,-0.503,-12.085,-278.076,-28.259
0.723,-0.057,-0.404,-13.428,-289.612,-30.151
0.768,-0.077,-0.291,-12.207,-296.753,-28.564
0.820,-0.093,-0.172,-8.057,-300.903,-24.353
0.894,-0.101,-0.045,-4.333,-301.697,-18.799
0.942,-0.122,0.087,-3.296,-298.218,-13.428
0.978,-0.134,0.209,-4.700,-288.696,-6.653
0.999,-0.132,0.312,-5.737,-272.095,-1.282
0.997,-0.144,0.391,-4.883,-246.155,2.319
1.006,-0.109,0.440,-6.348,-213.867,8.545
1.025,-0.053,0.457,-4.456,-179.443,15.930
1.032,-0.007,0.454,2.686,-147.827,20.203
1.047,0.033,0.442,8.728,-121.338,20.630
1.062,0.067,0.430,11.536,-99.426,17.273
1.072,0.078,0.419,13.123,-82.153,11.292
1.077,0.062,0.410,13.611,-68.909,3.296

1.095,0.007,0.764,44.373,58.044,1.648
1.135,0.004,0.908,53.162,86.426,1.221
1.219,0.021,1.110,58.533,118.225,1.770
1.189,-0.058,1.348,64.209,157.959,3.601
1.143,-0.100,1.500,58.777,215.210,4.883
1.069,-0.200,1.557,43.091,296.387,11.658
0.836,-0.247,1.442,26.672,396.667,22.400
0.633,-0.154,1.115,16.785,503.784,35.339
0.443,-0.074,0.630,28.809,598.389,44.617
0.246,0.048,0.033,51.086,660.095,48.157
0.108,0.182,-0.593,67.871,677.612,47.424
0.024,0.303,-1.189,80.078,655.884,39.917
0.072,0.380,-1.634,74.585,589.783,28.381
0.103,0.333,-1.861,56.458,482.788,12.268
0.128,0.217,-1.815,24.719,358.643,-2.441
0.150,0.017,-1.629,0.977,245.300,-8.667
0.263,-0.103,-1.396,-14.954,158.386,-2.991
0.319,-0.190,-1.171,-17.700,98.816,6.165
0.349,-0.190,-1.021,-14.832,65.979,18.433
0.360,-0.140,-0.982,-10.010,52.246,28.992
0.369,-0.082,-1.029,-6.287,44.495,35.339
0.342,-0.042,-1.087,-5.127,32.104,37.964
0.351,-0.021,-1.117,-11.963,12.573,40.466
0.281,0.009,-1.142,-24.780,-7.812,43.701
0.216,0.006,-1.192,-35.217,-27.100,43.335
0.212,0.013,-1.228,-45.410,-49.561,41.321
0.263,0.038,-1.225,-51.697,-78.735,40.955
0.292,0.065,-1.158,-51.880,-112.305,38.452
0.329,0.084,-1.057,-47.791,-144.165,33.264
0.369,0.104,-0.964,-40.771,-169.678,26.123
0.401,0.129,-0.880,-33.264,-188.965,17.517
0.417,0.148,-0.809,-22.278,-203.247,7.446
0.503,0.147,-0.760,-13.489,-215.027,-2.625
0.573,0.128,-0.701,-8.789,-228.882,-11.902
0.611,0.117,-0.623,-10.742,-242.554,-19.897
0.646,0.107,-0.537,-14.160,-251.770,-26.306
0.703,0.086,-0.460,-13.000,-256.653,-31.433
0.760,0.059,-0.381,-9.521,-259.094,-36.377
0.816,0.025,-0.312,-6.775,-258.057,-41.809
0.869,-0.028,-0.247,-2.502,-252.319,-47.180
0.878,-0.094,-0.182,2.808,-242.737,-50.354
0.922,-0.172,-0.130,6.226,-230.591,-47.974
0.950,-0.199,-0.077,6.653,-217.407,-39.368
0.963,-0.209,-0.035,8.606,-203.247,-29.236
0.961,-0.193,-0.003,10.010,-189.026,-18.005
0.972,-0.163,0.020,11.658,-175.293,-7.263
1.000,-0.143,0.045,15.259,-166.199,-0.732
1.025,-0.119,0.077,15.015,-161.804,2.258
1.049,-0.073,0.128,6.775,-159.241,4.639
1.063,-0.037,0.181,2.502,-156.433,4.822

1.172,0.007,0.804,33.264,71.655,10.620
1.211,0.012,0.964,33.325,100.220,9.766
1.222,-0.034,1.084,37.048,138.794,10.620
1.121,-0.091,1.183,33.447,194.458,12.085
0.980,-0.142,1.178,22.034,268.127,12.878
0.919,-0.165,1.041,19.836,351.562,16.296
0.826,-0.171,0.790,24.536,428.650,25.146
0.712,-0.123,0.491,27.222,488.098,33.386
0.670,-0.063,0.140,30.029,523.682,39.368
0.568,-0.001,-0.189,33.752,539.062,41.077
0.452,0.065,-0.522,37.598,534.973,40.039
0.402,0.110,-0.841,44.250,513.428,37.415
0.412,0.131,-1.034,46.692,473.328,33.691
0.407,0.125,-1.136,31.982,416.077,29.663
0.284,0.093,-1.162,12.329,359.985,25.513
0.224,0.077,-1.205,-1.465,311.829,26.733
0.175,0.062,-1.270,-8.728,271.423,29.724
0.153,0.074,-1.322,-14.038,233.093,29.907
0.154,0.005,-1.336,-15.808,190.369,25.635
0.157,-0.017,-1.293,-20.691,144.958,22.888
0.156,-0.046,-1.229,-21.118,104.858,21.118
0.183,-0.070,-1.189,-18.799,73.486,19.348
0.143,-0.084,-1.169,-17.944,49.255,18.311
0.146,-0.109,-1.234,-14.526,32.166,16.479
0.105,-0.135,-1.287,-15.381,13.550,19.165
0.030,-0.080,-1.312,-26.062,-8.667,23.926
0.074,-0.058,-1.372,-20.935,-33.081,23.437
0.132,-0.053,-1.368,-21.179,-66.711,21.484
0.112,-0.043,-1.282,-27.222,-103.699,18.982
0.162,-0.015,-1.196,-26.672,-137.634,18.372
0.198,-0.008,-1.101,-21.973,-166.809,15.747
0.248,0.017,-1.005,-22.827,-190.125,12.146
0.271,0.050,-0.917,-21.729,-207.764,8.057
0.334,0.075,-0.851,-14.587,-220.337,1.953
0.415,0.078,-0.796,-7.690,-231.079,-5.005
0.488,0.064,-0.734,-5.615,-242.859,-11.719
0.540,0.051,-0.661,-10.071,-253.296,-16.785
0.606,0.040,-0.586,-15.259,-260.620,-20.996
0.663,0.020,-0.516,-15.320,-264.832,-24.475
0.715,-0.003,-0.444,-12.024,-265.991,-26.917
0.765,-0.034,-0.374,-8.057,-263.916,-27.588
0.800,-0.075,-0.317,-3.784,-257.507,-26.245
0.831,-0.082,-0.267,-2.014,-246.704,-22.644
0.868,-0.084,-0.229,4.761,-234.619,-20.142
0.876,-0.093,-0.195,18.005,-222.107,-18.433
0.899,-0.075,-0.162,26.794,-210.693,-14.954
0.931,-0.034,-0.124,28.015,-203.064,-9.521
0.945,0.001,-0.078,26.306,-198.975,-5.737
0.952,0.020,-0.030,19.958,-195.312,-6.165
0.978,0.040,0.018,8.423,-190.063,-8.057

1.234,-0.054,0.718,23.560,34.668,13.794
1.132,-0.048,0.823,21.851,64.392,15.564
1.056,-0.023,0.894,23.437,109.924,15.869
1.144,-0.025,0.984,32.471,163.147,16.785
1.190,-0.139,1.057,41.931,214.417,16.846
1.092,-0.262,1.073,35.828,269.592,19.775
0.867,-0.301,0.977,19.592,338.440,30.029
0.737,-0.212,0.767,17.029,412.659,46.936
0.645,-0.107,0.466,36.987,480.713,61.462
0.496,0.003,0.097,53.345,531.311,68.665
0.429,0.163,-0.276,57.983,561.218,68.176
0.389,0.179,-0.666,64.758,556.091,60.608
0.365,0.200,-0.991,56.824,522.705,49.133
0.272,0.220,-1.201,39.734,470.581,42.114
0.240,0.214,-1.339,30.762,407.410,34.058
0.253,0.189,-1.377,20.447,341.614,26.367
0.244,0.126,-1.340,9.644,274.841,19.958
0.224,0.049,-1.275,0.122,218.872,15.320
0.215,-0.000,-1.226,-5.737,175.415,15.137
0.235,-0.045,-1.202,-8.423,141.296,18.250
0.234,-0.030,-1.172,-10.193,112.549,22.705
0.213,-0.042,-1.166,-8.728,88.318,24.780
0.228,-0.025,-1.185,-8.179,66.467,26.489
0.240,-0.006,-1.184,-10.864,42.908,29.419
0.237,-0.005,-1.175,-13.977,19.287,30.090
0.196,-0.008,-1.175,-19.287,-1.953,29.297
0.190,0.007,-1.207,-25.208,-21.423,28.320
0.202,0.023,-1.237,-27.344,-42.419,25.757
0.213,0.031,-1.228,-27.649,-68.115,21.484
0.254,0.055,-1.177,-28.687,-96.436,17.395
0.309,0.069,-1.103,-24.902,-124.146,12.390
0.338,0.067,-1.021,-20.935,-148.743,5.981
0.357,0.078,-0.946,-19.958,-167.786,0.427
0.421,0.087,-0.896,-16.907,-181.396,-3.601
0.466,0.086,-0.847,-12.146,-194.641,-7.629
0.513,0.092,-0.791,-11.658,-206.787,-11.841
0.567,0.095,-0.734,-11.353,-217.896,-16.541
0.618,0.098,-0.675,-10.071,-228.821,-20.813
0.667,0.101,-0.612,-9.766,-237.671,-23.376
0.716,0.100,-0.546,-10.925,-244.446,-25.513
0.759,0.090,-0.484,-11.536,-249.268,-28.748
0.800,0.059,-0.423,-10.681,-250.488,-33.813
0.814,0.011,-0.359,-9.949,-247.681,-39.124
0.826,-0.026,-0.293,-9.216,-240.845,-41.443
0.867,-0.046,-0.235,-6.409,-231.384,-40.466
0.902,-0.071,-0.181,0.793,-221.863,-37.842
0.934,-0.102,-0.132,7.141,-212.219,-34.973
0.959,-0.123,-0.087,7.202,-201.782,-31.860
0.998,-0.138,-0.044,3.113,-190.857,-27.832
1.019,-0.141,0.002,-1.831,-181.152,-21.606

1.336,-0.058,0.738,4.211,11.719,16.663
1.322,-0.022,0.999,-4.578,28.015,22.644
1.288,-0.024,1.185,0.183,65.857,24.658
1.158,-0.039,1.326,4.822,130.615,25.513
0.971,-0.052,1.382,8.423,227.478,23.437
0.766,-0.131,1.238,28.198,346.313,22.217
0.576,-0.133,0.895,37.903,466.675,26.672
0.402,-0.062,0.470,41.443,570.435,33.997
0.300,0.004,-0.024,56.885,634.521,39.917
0.189,0.099,-0.512,69.702,658.630,43.030
0.006,0.205,-1.003,77.881,648.682,41.382
-0.093,0.288,-1.521,79.895,607.849,36.316
0.002,0.374,-1.910,63.110,523.926,28.931
0.108,0.308,-2.016,46.387,399.841,13.611
0.150,0.132,-1.841,19.287,264.160,-3.601
0.226,-0.037,-1.521,-13.428,149.780,-10.620
0.273,-0.186,-1.176,-26.001,71.533,-5.798
0.306,-0.218,-0.916,-26.855,36.194,7.385
0.346,-0.185,-0.801,-21.423,37.292,21.484
0.336,-0.137,-0.825,-15.747,52.185,31.982
0.306,-0.073,-0.924,-13.855,67.444,36.560
0.280,-0.015,-1.032,-6.470,71.472,38.147
0.277,0.036,-1.116,-2.625,63.599,36.987
0.273,0.050,-1.156,-4.883,45.593,32.471
0.249,0.042,-1.155,-10.864,22.400,27.222
0.255,0.031,-1.155,-16.113,0.610,22.888
0.261,0.025,-1.154,-18.127,-19.104,18.860
0.269,0.033,-1.145,-17.517,-39.063,15.442
0.274,0.034,-1.133,-15.320,-58.838,11.841
0.303,0.035,-1.117,-14.404,-79.956,8.423
0.331,0.033,-1.088,-15.076,-100.830,4.456
0.363,0.038,-1.043,-15.076,-120.239,-0.122
0.375,0.041,-0.993,-10.193,-138.000,-5.005
0.401,0.053,-0.945,-4.028,-153.564,-10.498
0.452,0.056,-0.903,-0.916,-168.030,-15.686
0.511,0.061,-0.853,-1.892,-182.861,-20.020
0.569,0.064,-0.792,-5.859,-197.998,-22.644
0.619,0.059,-0.725,-9.705,-211.487,-25.391
0.665,0.048,-0.659,-12.329,-221.313,-28.442
0.694,0.026,-0.603,-13.000,-226.074,-30.823
0.718,0.003,-0.550,-12.268,-226.685,-32.349
0.750,-0.016,-0.508,-9.644,-224.487,-33.081
0.777,-0.039,-0.467,-3.540,-220.642,-32.959
0.776,-0.081,-0.427,2.441,-216.064,-31.555
0.781,-0.115,-0.400,0.488,-209.534,-29.175
0.812,-0.098,-0.374,-9.399,-200.256,-23.987
0.834,-0.069,-0.342,-8.423,-193.726,-18.005
0.852,-0.034,-0.302,-0.122,-191.284,-12.817
0.875,0.005,-0.251,3.052,-190.247,-9.766
0.913,0.043,-0.194,2.502,-190.125,-10.437

1.246,-0.085,0.684,20.264,51.941,13.184
1.193,-0.028,0.809,20.935,85.449,16.785
1.155,-0.013,0.959,31.738,133.911,18.738
1.153,-0.044,1.075,50.964,188.965,21.912
1.088,-0.042,1.174,52.246,250.061,32.349
0.955,0.007,1.176,38.635,318.909,45.654
0.786,0.058,1.089,22.461,398.865,52.124
0.610,0.042,0.864,15.625,481.934,48.218
0.473,-0.002,0.521,11.597,559.448,38.818
0.277,-0.044,0.083,12.390,625.488,27.466
0.110,-0.059,-0.457,27.100,672.180,21.484
-0.046,-0.035,-1.071,48.218,685.547,22.095
-0.182,0.006,-1.689,60.669,658.569,21.362
-0.222,0.082,-2.188,57.129,574.097,21.301
-0.149,0.077,-2.417,49.500,434.509,21.973
-0.066,-0.015,-2.252,24.353,265.869,22.095
-0.012,-0.095,-1.790,-10.681,112.427,26.062
0.128,-0.150,-1.276,-30.762,8.850,34.363
0.205,-0.162,-0.913,-36.377,-34.912,43.884
0.182,-0.110,-0.757,-37.781,-33.691,52.673
0.165,-0.033,-0.798,-32.410,-10.376,58.411
0.146,0.038,-0.923,-26.184,9.277,59.326
0.124,0.088,-1.054,-26.978,16.479,52.612
0.150,0.076,-1.153,-32.227,11.414,41.565
0.167,0.015,-1.185,-37.048,-5.737,29.968
0.193,-0.032,-1.165,-42.725,-28.931,23.071
0.237,-0.032,-1.119,-43.518,-51.331,20.325
0.282,-0.013,-1.075,-36.255,-69.519,17.212
0.336,-0.001,-1.052,-26.428,-84.229,13.062
0.372,0.020,-1.037,-19.287,-97.290,8.179
0.376,0.035,-1.014,-12.146,-110.352,1.404
0.408,0.058,-0.985,-5.066,-121.887,-4.761
0.446,0.078,-0.945,2.075,-132.019,-12.024
0.489,0.072,-0.915,8.850,-141.724,-22.034
0.512,0.049,-0.892,10.437,-150.635,-31.677
0.520,0.027,-0.870,8.301,-159.729,-38.696
0.570,-0.029,-0.866,6.165,-169.434,-42.847
0.601,-0.038,-0.846,1.526,-182.678,-41.992
0.609,-0.063,-0.802,-3.479,-197.327,-43.518
0.632,-0.092,-0.737,-6.836,-211.121,-44.556
0.648,-0.110,-0.668,-10.254,-223.572,-42.542
0.671,-0.123,-0.603,-12.085,-231.140,-37.903
0.689,-0.104,-0.540,-12.390,-235.962,-29.968
0.717,-0.064,-0.474,-12.268,-238.403,-21.545
0.755,-0.023,-0.399,-11.902,-241.333,-16.357
0.808,-0.006,-0.322,-10.864,-243.408,-17.761
0.857,-0.032,-0.250,-9.216,-243.530,-25.024
0.903,-0.082,-0.180,-8.911,-240.601,-33.875
0.949,-0.151,-0.114,-8.606,-233.948,-40.100
0.983,-0.230,-0.053,-5.310,-224.060,-42.236

1.227,-0.108,0.612,25.085,50.171,6.470
1.227,-0.137,0.748,25.269,74.890,7.629
1.230,-0.155,0.848,20.142,106.812,15.442
1.208,-0.165,0.936,16.296,153.809,21.851
1.145,-0.195,1.005,16.296,212.708,28.137
1.078,-0.224,1.017,23.560,275.208,39.978
0.944,-0.148,0.990,26.062,344.849,54.688
0.799,-0.051,0.897,33.020,417.053,67.261
0.713,0.025,0.732,41.626,483.643,74.158
0.568,0.100,0.488,36.865,538.452,75.439
0.358,0.193,0.153,28.198,583.984,71.411
0.198,0.254,-0.312,32.654,614.502,63.599
0.002,0.238,-0.891,35.217,623.901,54.199
-0.053,0.265,-1.424,19.592,600.220,43.152
-0.152,0.232,-1.771,9.155,532.532,29.053
-0.222,0.135,-1.941,7.141,434.204,15.930
-0.158,0.060,-1.924,-7.385,326.477,10.559
-0.065,-0.082,-1.732,-15.442,221.191,7.202
0.014,-0.194,-1.460,-23.132,133.972,7.080
0.058,-0.285,-1.223,-24.658,78.430,12.939
0.070,-0.309,-1.097,-21.301,53.589,25.330
0.048,-0.219,-1.069,-19.165,46.936,42.908
0.036,-0.104,-1.122,-15.259,45.898,52.307
0.012,-0.040,-1.214,-13.489,40.405,51.636
0.013,0.001,-1.276,-17.395,23.743,45.898
0.012,-0.021,-1.292,-23.010,-0.916,37.598
0.009,-0.064,-1.269,-32.776,-27.466,29.236
0.025,-0.116,-1.244,-38.391,-50.842,21.973
0.085,-0.146,-1.219,-35.034,-71.533,16.907
0.148,-0.138,-1.172,-27.710,-92.102,15.076
0.182,-0.111,-1.102,-19.470,-112.366,14.709
0.266,-0.053,-1.037,-14.954,-129.395,15.564
0.337,-0.008,-0.979,-7.812,-144.836,16.846
0.388,0.032,-0.926,-0.732,-157.837,16.663
0.448,0.069,-0.886,-0.061,-165.405,13.550
0.460,0.093,-0.855,0.610,-169.495,7.263
0.490,0.055,-0.839,3.174,-171.692,1.038
0.507,0.103,-0.834,1.709,-174.377,-1.953
0.546,0.111,-0.829,3.296,-178.345,-10.803
0.567,0.087,-0.815,10.620,-185.669,-22.583
0.588,0.035,-0.791,14.771,-195.190,-32.715
0.618,-0.009,-0.752,14.587,-205.750,-37.415
0.660,-0.038,-0.695,12.329,-217.773,-37.720
0.721,-0.063,-0.620,10.925,-229.614,-33.875
0.733,-0.053,-0.536,9.033,-239.014,-26.855
0.756,-0.019,-0.453,6.653,-242.859,-19.958
0.785,0.008,-0.385,6.958,-241.455,-15.259
0.813,0.020,-0.325,5.615,-236.877,-13.245
0.829,0.048,-0.277,-0.854,-228.577,-11.475
0.844,0.078,-0.239,-5.188,-217.468,-11.292

1.272,0.008,0.811,38.269,38.696,7.629
1.361,-0.001,1.050,47.302,58.411,12.146
1.349,-0.023,1.268,37.720,100.220,12.146
1.220,-0.073,1.430,27.405,163.635,10.681
0.977,-0.163,1.454,25.452,256.531,14.893
0.695,-0.226,1.267,23.254,374.329,25.513
0.546,-0.194,0.907,19.409,498.230,33.447
0.442,-0.173,0.428,39.734,594.299,40.649
0.323,-0.073,-0.077,66.101,644.470,51.086
0.219,0.078,-0.581,85.327,655.823,57.739
0.141,0.176,-1.035,103.760,627.991,58.228
0.129,0.201,-1.440,100.586,566.040,56.335
0.217,0.240,-1.685,66.345,473.938,54.504
0.177,0.192,-1.681,29.114,363.342,49.438
0.172,0.110,-1.527,1.221,261.536,45.654
0.184,0.052,-1.333,-16.479,184.814,46.997
0.161,0.048,-1.165,-26.917,134.949,49.500
0.145,0.072,-1.081,-26.428,110.535,49.438
0.157,0.089,-1.096,-21.606,100.220,44.434
0.152,0.076,-1.131,-16.479,89.783,36.072
0.131,0.067,-1.162,-16.479,73.975,27.649
0.187,0.027,-1.217,-11.047,54.749,20.752
0.194,-0.025,-1.224,-11.597,29.358,16.907
0.151,-0.067,-1.210,-18.066,4.028,16.968
0.165,-0.063,-1.228,-21.851,-17.517,20.508
0.178,-0.056,-1.239,-22.583,-39.246,23.682
0.208,-0.039,-1.228,-26.245,-64.392,25.085
0.249,0.000,-1.182,-29.114,-92.041,27.222
0.302,0.045,-1.110,-28.748,-119.995,28.992
0.351,0.069,-1.026,-27.466,-144.409,27.954
0.374,0.098,-0.944,-27.283,-164.124,24.963
0.450,0.130,-0.892,-24.475,-176.941,20.325
0.517,0.147,-0.858,-16.174,-188.416,14.587
0.563,0.157,-0.818,-12.451,-199.829,6.226
0.606,0.163,-0.778,-10.681,-208.191,-3.174
0.623,0.153,-0.726,-4.333,-215.393,-14.771
0.669,0.115,-0.668,4.456,-221.619,-25.208
0.708,0.082,-0.607,12.939,-226.990,-31.067
0.732,0.062,-0.544,16.296,-230.286,-34.729
0.764,0.045,-0.479,18.494,-231.506,-36.072
0.811,0.021,-0.417,20.813,-232.605,-35.522
0.843,-0.004,-0.353,18.127,-232.788,-33.081
0.854,-0.030,-0.293,9.216,-229.675,-29.175
0.863,-0.042,-0.236,-2.319,-222.290,-24.231
0.892,-0.024,-0.182,-12.085,-210.999,-17.761
0.922,0.003,-0.138,-12.817,-198.181,-10.681
0.944,0.045,-0.105,-8.423,-184.265,-5.310
0.962,0.084,-0.086,-3.784,-169.983,-3.845
0.973,0.097,-0.072,0.122,-155.945,-7.141
0.979,0.088,-0.059,2.441,-143.921,-12.756

1.370,-0.057,0.855,12.939,66.956,23.682
1.403,-0.049,1.142,3.540,102.600,32.776
1.383,-0.092,1.374,3.540,148.560,41.199
1.089,-0.144,1.533,2.808,225.952,49.866
0.816,-0.124,1.517,-5.615,343.262,61.157
0.641,-0.086,1.245,0.305,471.680,72.510
0.353,-0.002,0.777,20.264,595.276,79.468
0.072,0.183,0.073,44.312,691.895,83.801
-0.092,0.395,-0.755,71.167,739.990,80.994
-0.238,0.545,-1.505,90.576,729.797,64.331
-0.266,0.566,-2.119,85.510,649.353,40.161
-0.253,0.443,-2.433,47.424,513.123,14.282
-0.109,0.209,-2.410,2.502,343.384,-3.906
0.042,-0.085,-2.005,-28.015,171.753,-6.775
0.143,-0.234,-1.407,-49.133,39.063,4.028
0.172,-0.259,-0.938,-46.814,-20.508,20.874
0.188,-0.181,-0.768,-35.889,-14.893,36.255
0.202,-0.065,-0.848,-24.719,16.418,45.898
0.198,0.012,-1.005,-11.780,38.574,49.011
0.119,0.093,-1.150,-8.911,41.626,48.828
0.089,0.128,-1.260,-11.230,27.344,44.800
0.111,0.109,-1.286,-17.029,-0.366,36.560
0.125,0.062,-1.251,-24.292,-31.738,26.733
0.183,0.036,-1.197,-28.809,-62.256,19.836
0.267,0.020,-1.142,-27.649,-91.614,16.663
0.321,0.030,-1.057,-25.879,-118.774,15.869
0.351,0.056,-0.982,-22.949,-140.747,16.541
0.408,0.098,-0.922,-18.433,-155.518,15.442
0.505,0.129,-0.880,-11.230,-165.833,12.085
0.570,0.146,-0.836,-5.066,-176.880,8.362
0.636,0.144,-0.768,-3.967,-186.401,6.470
0.658,0.163,-0.704,-2.747,-194.214,5.737
0.729,0.202,-0.649,-1.038,-199.951,3.479
0.740,0.213,-0.593,3.052,-202.332,-2.747
0.761,0.203,-0.548,3.418,-201.294,-11.841
0.793,0.187,-0.507,-0.183,-196.533,-20.752
0.819,0.153,-0.477,0.305,-191.040,-27.283
0.833,0.110,-0.452,2.747,-185.608,-31.372
0.853,0.064,-0.430,3.418,-178.528,-32.776
0.860,0.028,-0.406,3.052,-171.326,-30.518
0.866,0.023,-0.380,2.136,-164.429,-24.292
0.877,0.042,-0.361,3.235,-157.654,-17.029
0.867,0.070,-0.348,5.920,-150.818,-11.475
0.855,0.096,-0.339,7.751,-143.311,-9.827
0.874,0.109,-0.338,9.827,-136.536,-11.902
0.878,0.114,-0.328,11.292,-133.850,-16.052
0.905,0.111,-0.307,10.620,-133.606,-20.813
0.937,0.091,-0.273,8.545,-136.658,-24.719
0.969,0.072,-0.224,3.235,-140.320,-27.954
0.998,0.039,-0.165,-1.953,-142.090,-30.334

1.249,0.124,0.657,24.902,51.392,14.771
1.275,0.102,0.825,32.959,82.947,14.099
1.204,0.026,0.962,34.058,133.911,10.620
1.142,0.001,1.047,21.301,203.003,12.817
1.027,-0.049,1.054,14.099,280.151,21.240
0.893,-0.115,0.947,16.602,366.943,30.029
0.720,-0.057,0.735,14.832,456.726,41.260
0.541,0.016,0.397,32.043,535.828,49.927
0.317,0.150,-0.050,60.303,598.022,54.077
0.128,0.339,-0.592,82.214,635.925,52.429
0.107,0.447,-1.162,102.417,632.874,42.542
0.075,0.460,-1.588,95.032,577.393,30.396
0.019,0.374,-1.825,54.871,483.093,16.602
0.033,0.235,-1.898,13.123,367.737,6.958
0.084,0.070,-1.758,-14.954,248.962,7.751
0.149,-0.042,-1.459,-34.241,147.461,15.869
0.149,-0.076,-1.151,-43.274,80.750,27.283
0.190,-0.055,-0.974,-39.490,54.810,36.255
0.201,-0.028,-0.932,-33.630,54.321,40.283
0.150,-0.008,-0.995,-30.029,61.462,41.809
0.123,0.014,-1.126,-23.926,65.002,42.175
0.134,0.021,-1.239,-19.714,55.115,41.260
0.119,0.007,-1.264,-21.423,31.738,38.513
0.159,-0.001,-1.254,-26.184,4.578,36.682
0.168,-0.023,-1.216,-30.701,-21.606,36.865
0.194,-0.009,-1.184,-37.842,-44.006,38.208
0.218,0.014,-1.159,-38.269,-62.683,39.612
0.235,0.050,-1.128,-35.156,-80.444,39.307
0.251,0.092,-1.102,-31.189,-96.619,36.987
0.275,0.138,-1.074,-25.269,-112.610,32.593
0.323,0.158,-1.039,-16.174,-128.479,27.710
0.362,0.173,-1.008,-5.066,-144.958,22.827
0.420,0.193,-0.973,0.916,-161.621,19.104
0.447,0.212,-0.934,2.625,-178.894,13.000
0.485,0.234,-0.878,2.197,-194.092,2.014
0.546,0.204,-0.826,4.089,-206.726,-10.925
0.600,0.145,-0.763,0.000,-217.163,-22.583
0.638,0.097,-0.695,-12.512,-223.389,-28.503
0.673,0.065,-0.633,-19.409,-226.013,-29.358
0.688,0.041,-0.576,-15.808,-225.159,-27.771
0.707,0.013,-0.528,-6.165,-221.497,-24.048
0.722,0.026,-0.492,3.662,-215.820,-19.592
0.754,0.056,-0.458,13.916,-209.045,-16.602
0.775,0.089,-0.429,24.536,-202.148,-15.503
0.796,0.123,-0.394,29.663,-195.496,-15.442
0.829,0.159,-0.356,27.161,-190.308,-17.090
0.869,0.173,-0.315,23.987,-186.890,-21.912
0.887,0.148,-0.270,23.193,-184.204,-29.419
0.929,0.112,-0.231,17.639,-180.176,-37.231
0.973,0.064,-0.190,8.606,-173.340,-41.199

1.376,0.091,0.835,-1.160,10.498,18.372
1.451,0.084,1.082,-3.418,36.133,24.536
1.322,0.047,1.317,-3.540,89.111,25.208
1.129,0.026,1.465,-3.540,175.049,25.757
0.961,0.001,1.490,1.587,289.490,31.067
0.708,-0.050,1.302,4.211,417.175,39.490
0.497,-0.017,0.879,0.061,546.265,46.814
0.322,0.029,0.263,4.333,654.358,53.589
0.069,0.151,-0.458,21.545,716.125,60.425
-0.077,0.345,-1.146,43.884,723.389,63.354
-0.116,0.477,-1.721,69.275,669.189,56.580
-0.117,0.497,-2.030,55.542,564.209,36.804
-0.125,0.327,-2.081,17.944,427.917,16.479
-0.008,0.129,-1.948,-21.790,287.842,6.775
0.083,-0.014,-1.595,-53.955,161.804,13.123
0.093,-0.072,-1.201,-63.354,75.256,22.827
0.154,-0.082,-0.963,-60.486,43.701,29.663
0.115,-0.069,-0.934,-53.284,48.889,31.555
0.049,-0.044,-1.064,-41.443,64.636,28.809
0.021,-0.046,-1.236,-24.414,71.106,23.010
0.008,-0.048,-1.377,-13.184,60.425,17.090
0.022,-0.050,-1.452,-7.385,31.311,11.719
0.046,-0.061,-1.421,-4.272,-10.498,7.202
0.056,-0.072,-1.316,-5.737,-52.673,3.052
0.097,-0.060,-1.209,-7.935,-86.731,-0.183
0.168,-0.027,-1.139,-6.104,-111.389,-1.343
0.248,-0.001,-1.080,-0.793,-131.348,-1.831
0.295,0.023,-1.021,1.160,-149.475,-2.930
0.333,0.065,-0.952,0.610,-165.649,-3.540
0.401,0.102,-0.892,1.709,-179.443,-2.686
0.454,0.128,-0.837,2.808,-190.125,-4.333
0.522,0.154,-0.796,1.770,-197.205,-8.301
0.588,0.166,-0.776,2.991,-202.393,-13.672
0.634,0.161,-0.762,6.958,-208.435,-19.775
0.662,0.146,-0.741,7.080,-215.332,-26.855
0.695,0.118,-0.705,6.287,-222.839,-33.875
0.719,0.083,-0.646,5.859,-231.567,-38.025
0.753,0.054,-0.573,1.770,-240.295,-38.208
0.788,0.044,-0.490,-3.479,-246.277,-34.485
0.805,0.045,-0.410,-6.165,-248.230,-28.442
0.827,0.062,-0.336,-5.676,-245.422,-20.813
0.852,0.088,-0.269,-3.845,-237.549,-14.465
0.884,0.109,-0.215,-2.136,-225.525,-11.475
0.902,0.111,-0.174,-0.488,-210.266,-12.268
0.903,0.111,-0.145,0.061,-191.650,-14.465
0.898,0.110,-0.137,1.221,-171.570,-16.602
0.823,0.061,-0.116,4.272,-152.405,-18.066
0.806,0.024,-0.095,-1.221,-136.475,-18.372
0.946,0.109,-0.132,-21.301,-120.850,-17.151
1.096,0.116,-0.205,-16.479,-104.919,-20.203

1.292,0.113,0.769,12.451,9.949,10.925
1.372,0.089,0.981,29.846,36.377,13.489
1.299,0.002,1.198,41.687,87.769,5.188
1.173,-0.068,1.323,33.630,161.377,2.625
1.002,-0.167,1.351,30.029,256.653,8.423
0.885,-0.221,1.253,30.090,361.267,20.813
0.754,-0.224,1.042,29.480,461.914,39.063
0.637,-0.177,0.730,31.738,551.086,55.908
0.367,-0.078,0.337,43.945,628.784,71.045
-0.038,0.147,-0.191,70.435,696.289,80.627
-0.352,0.389,-0.865,115.540,747.070,80.444
-0.496,0.572,-1.614,169.067,756.165,70.190
-0.382,0.623,-2.329,179.382,692.383,49.622
-0.339,0.520,-2.756,131.104,535.767,22.339
-0.124,0.360,-2.567,36.682,312.195,3.723
0.029,0.199,-1.952,-27.527,97.595,-6.287
-0.027,-0.070,-1.254,-48.462,-40.161,-13.489
0.098,-0.159,-0.867,-54.016,-83.008,-4.822
0.186,-0.086,-0.753,-50.354,-65.735,14.343
0.256,-0.033,-0.798,-31.433,-37.537,24.414
0.274,-0.001,-0.864,-18.188,-18.799,28.992
0.255,0.035,-0.963,-12.634,-9.583,31.921
0.269,0.070,-1.046,-11.108,-11.230,34.729
0.288,0.083,-1.093,-12.695,-23.376,35.889
0.302,0.102,-1.102,-18.799,-43.335,36.377
0.318,0.141,-1.068,-23.865,-66.040,35.645
0.362,0.171,-1.031,-23.682,-87.646,32.471
0.400,0.198,-0.991,-18.677,-107.056,28.809
0.469,0.245,-0.943,-13.306,-125.122,26.367
0.549,0.292,-0.887,-12.268,-140.930,23.376
0.605,0.323,-0.830,-13.916,-153.625,16.846
0.630,0.341,-0.784,-15.747,-161.011,5.432
0.637,0.325,-0.758,-12.817,-162.598,-8.667
0.636,0.287,-0.756,-7.019,-161.438,-23.621
0.640,0.245,-0.765,-3.113,-161.438,-35.522
0.638,0.196,-0.766,-2.075,-165.894,-43.274
0.634,0.157,-0.743,-4.639,-174.377,-48.279
0.637,0.123,-0.706,-7.568,-184.814,-50.720
0.671,0.094,-0.657,-10.315,-196.594,-50.171
0.696,0.076,-0.596,-14.587,-208.191,-47.791
0.714,0.069,-0.534,-18.677,-217.041,-47.058
0.742,0.048,-0.472,-18.494,-220.459,-48.035
0.775,0.006,-0.416,-16.724,-219.482,-49.255
0.819,-0.023,-0.363,-19.592,-214.478,-48.279
0.853,-0.038,-0.304,-23.071,-207.336,-44.861
0.889,-0.043,-0.241,-21.179,-199.341,-40.955
0.932,-0.057,-0.188,-16.724,-190.735,-36.377
0.979,-0.059,-0.136,-18.616,-180.847,-30.273
1.009,-0.057,-0.076,-25.513,-169.983,-24.475
1.050,-0.076,-0.028,-27.710,-158.508,-22.034

1.259,0.071,0.840,7.996,23.804,5.737
1.253,0.081,1.014,29.419,65.430,1.770
1.267,-0.040,1.166,49.805,126.648,-3.357
1.068,-0.200,1.271,55.298,200.012,-6.042
0.992,-0.253,1.279,44.128,294.006,7.385
0.836,-0.294,1.151,49.500,400.391,28.931
0.494,-0.245,0.821,73.486,514.282,51.392
0.216,-0.048,0.320,94.421,624.023,76.843
-0.004,0.188,-0.286,114.807,709.778,91.370
-0.153,0.379,-0.914,141.907,753.418,85.144
-0.205,0.481,-1.497,170.410,743.103,64.087
-0.199,0.458,-2.097,170.776,667.236,41.138
-0.117,0.494,-2.482,120.667,513.916,29.968
0.036,0.408,-2.346,48.340,310.913,19.592
0.187,0.134,-1.843,-7.019,117.859,2.075
0.250,-0.101,-1.252,-52.856,-15.747,0.183
0.284,-0.179,-0.860,-72.937,-69.275,16.968
0.317,-0.122,-0.713,-71.228,-62.317,38.940
0.330,-0.021,-0.708,-59.265,-33.813,54.077
0.282,0.067,-0.742,-42.053,-5.981,58.716
0.265,0.164,-0.812,-27.466,17.212,55.481
0.273,0.234,-0.888,-14.893,32.837,46.326
0.306,0.247,-0.960,-4.700,38.452,33.203
0.322,0.231,-1.016,-1.465,35.950,19.348
0.337,0.194,-1.061,-1.892,27.222,5.676
0.350,0.151,-1.079,-2.502,13.428,-3.174
0.367,0.144,-1.095,-2.747,-4.028,-5.249
0.390,0.146,-1.087,-3.052,-23.376,-6.653
0.394,0.136,-1.073,-4.944,-42.664,-9.460
0.396,0.126,-1.057,-6.409,-61.768,-11.047
0.394,0.113,-1.034,-7.568,-78.369,-11.963
0.391,0.101,-1.019,-8.423,-92.346,-13.184
0.421,0.109,-1.032,-10.498,-105.103,-14.893
0.436,0.122,-1.033,-10.376,-122.375,-16.663
0.449,0.134,-1.012,-12.329,-144.836,-18.921
0.476,0.141,-0.974,-15.320,-170.044,-23.010
0.512,0.138,-0.920,-16.785,-195.374,-29.175
0.548,0.127,-0.841,-18.677,-218.872,-36.987
0.572,0.092,-0.752,-19.958,-237.427,-44.434
0.599,0.052,-0.658,-27.100,-248.169,-49.438
0.672,0.040,-0.568,-42.358,-251.526,-49.561
0.731,0.017,-0.489,-52.124,-252.380,-46.997
0.775,-0.010,-0.416,-57.739,-249.939,-44.556
0.814,-0.034,-0.351,-61.035,-242.310,-42.114
0.860,-0.075,-0.301,-56.335,-230.774,-41.016
0.909,-0.123,-0.260,-46.814,-217.773,-40.039
0.948,-0.168,-0.219,-35.950,-203.796,-36.621
0.958,-0.202,-0.182,-25.330,-188.843,-31.128
0.965,-0.218,-0.151,-17.639,-170.898,-24.170
0.974,-0.200,-0.127,-11.597,-150.818,-15.259

1.198,-0.052,0.580,38.452,55.481,2.380
1.226,-0.056,0.672,58.777,90.637,5.554
1.240,-0.084,0.742,66.956,131.775,10.986
1.160,-0.113,0.807,55.847,180.786,16.724
1.030,-0.158,0.868,45.593,238.220,22.278
1.068,-0.199,0.851,46.021,297.546,32.410
0.968,-0.222,0.793,46.021,357.971,48.767
0.684,-0.143,0.642,39.307,427.551,62.134
0.431,0.048,0.333,51.880,506.042,73.181
0.287,0.217,-0.141,89.233,578.552,76.660
0.203,0.357,-0.654,118.225,620.300,70.923
0.123,0.413,-1.123,127.686,613.403,58.838
0.051,0.420,-1.547,114.380,562.317,41.748
0.097,0.412,-1.814,74.707,468.506,24.414
0.147,0.250,-1.798,42.114,347.290,7.019
0.123,0.071,-1.574,5.676,231.140,-0.549
0.155,-0.043,-1.347,-26.978,148.010,3.723
0.186,-0.150,-1.188,-34.851,99.182,13.123
0.181,-0.160,-1.099,-33.386,73.730,27.161
0.149,-0.098,-1.072,-30.151,61.462,41.809
0.135,-0.025,-1.117,-24.048,54.688,49.072
0.117,0.026,-1.166,-19.836,44.556,49.561
0.106,0.064,-1.194,-16.541,27.771,45.837
0.083,0.074,-1.206,-17.334,6.836,39.001
0.110,0.081,-1.200,-21.545,-12.817,30.334
0.159,0.076,-1.161,-21.301,-33.813,21.362
0.236,0.074,-1.091,-19.043,-54.749,14.526
0.320,0.080,-1.010,-16.418,-73.120,9.583
0.361,0.068,-0.942,-13.306,-86.975,4.883
0.398,0.067,-0.904,-12.024,-93.811,2.380
0.433,0.072,-0.882,-10.254,-96.313,1.038
0.437,0.070,-0.872,-6.409,-96.191,-1.221
0.460,0.089,-0.883,-3.296,-93.262,-3.479
0.481,0.100,-0.916,1.343,-91.919,-6.287
0.485,0.109,-0.951,4.883,-95.154,-8.911
0.491,0.122,-0.984,2.686,-103.088,-11.108
0.498,0.131,-1.008,0.549,-116.943,-13.489
0.501,0.140,-1.009,-1.770,-136.536,-16.602
0.511,0.123,-0.978,-4.883,-161.011,-21.667
0.533,0.102,-0.924,-7.202,-186.768,-26.978
0.559,0.085,-0.855,-10.498,-210.937,-32.166
0.562,0.053,-0.774,-11.536,-229.065,-39.856
0.583,0.009,-0.694,-11.902,-241.455,-46.875
0.625,-0.007,-0.606,-14.954,-249.451,-48.279
0.677,0.000,-0.506,-22.156,-253.235,-44.006
0.751,0.021,-0.415,-30.518,-255.249,-37.354
0.823,0.021,-0.332,-36.865,-255.615,-32.288
0.878,0.002,-0.257,-43.091,-252.319,-30.884
0.919,-0.044,-0.198,-47.668,-245.178,-32.715
0.954,-0.103,-0.147,-49.255,-233.887,-34.607

1.276,-0.090,0.619,29.419,60.425,7.996
1.270,-0.097,0.796,27.893,90.393,12.878
1.239,-0.154,0.898,38.330,133.911,17.090
1.176,-0.217,0.945,41.443,199.646,22.705
0.997,-0.232,0.918,33.142,281.006,30.457
0.823,-0.208,0.743,46.265,366.882,44.983
0.668,-0.131,0.446,65.674,449.341,61.890
0.508,0.026,0.093,75.623,515.076,72.815
0.415,0.178,-0.290,88.928,555.664,73.730
0.298,0.255,-0.715,107.422,566.895,66.284
0.185,0.349,-1.111,110.168,547.974,58.838
0.145,0.397,-1.444,98.938,499.268,49.622
0.155,0.372,-1.674,73.242,417.725,35.400
0.148,0.283,-1.694,37.292,315.674,20.752
0.114,0.184,-1.547,5.737,217.041,10.254
0.152,0.091,-1.363,-14.526,140.381,5.920
0.206,-0.015,-1.203,-22.400,88.867,4.578
0.241,-0.074,-1.083,-26.794,58.594,8.179
0.243,-0.090,-1.026,-25.391,43.274,15.015
0.245,-0.073,-1.054,-18.494,36.926,21.545
0.234,-0.041,-1.125,-13.062,30.640,26.245
0.201,-0.018,-1.189,-10.498,19.165,27.527
0.204,-0.001,-1.228,-12.024,0.977,27.405
0.212,-0.002,-1.219,-17.151,-25.146,27.100
0.229,0.009,-1.175,-26.306,-54.260,26.917
0.274,0.017,-1.122,-30.884,-81.543,27.039
0.318,0.026,-1.066,-31.311,-105.469,26.855
0.347,0.051,-1.005,-34.546,-125.488,26.550
0.385,0.079,-0.954,-36.560,-141.724,25.696
0.490,0.070,-0.910,-32.837,-156.433,24.597
0.556,0.090,-0.856,-26.367,-172.119,23.865
0.590,0.122,-0.793,-22.461,-184.692,20.447
0.621,0.153,-0.749,-18.250,-190.308,12.939
0.634,0.165,-0.715,-11.719,-191.101,3.784
0.657,0.170,-0.693,-5.798,-190.430,-5.188
0.690,0.165,-0.658,-1.892,-191.772,-15.503
0.728,0.148,-0.603,2.319,-195.801,-26.123
0.768,0.128,-0.539,5.554,-201.599,-33.508
0.803,0.113,-0.474,6.592,-206.787,-37.292
0.833,0.092,-0.415,6.226,-208.923,-39.429
0.873,0.049,-0.359,4.395,-207.397,-40.710
0.902,0.014,-0.313,-1.953,-202.393,-39.734
0.929,-0.007,-0.271,-12.207,-194.702,-36.194
0.960,-0.027,-0.228,-20.691,-184.631,-31.982
0.972,-0.053,-0.184,-21.667,-173.279,-27.466
0.975,-0.076,-0.150,-18.921,-159.241,-22.766
0.975,-0.083,-0.134,-17.212,-142.456,-17.212
0.986,-0.071,-0.128,-15.442,-125.244,-11.292
0.992,-0.047,-0.132,-8.789,-109.802,-6.714
0.996,-0.031,-0.147,1.465,-97.290,-4.456

1.228,-0.020,0.650,22.034,39.795,3.723
1.303,0.001,0.806,40.222,75.867,7.080
1.312,-0.040,0.958,51.697,120.483,12.756
1.231,-0.121,1.042,49.377,182.373,14.954
1.016,-0.146,1.021,40.527,262.939,21.912
0.831,-0.105,0.873,46.875,358.521,35.217
0.727,-0.056,0.619,71.289,449.646,48.584
0.556,0.043,0.312,92.468,521.851,58.960
0.401,0.175,-0.066,102.417,573.181,63.904
0.228,0.284,-0.503,110.413,602.356,59.082
0.122,0.386,-0.991,112.244,603.088,49.438
0.035,0.422,-1.444,104.004,570.312,35.767
-0.049,0.351,-1.821,79.773,499.634,15.381
-0.041,0.241,-2.019,46.753,393.921,1.404
-0.026,0.126,-1.927,13.489,269.287,-3.784
0.088,0.188,-1.630,-9.399,152.222,-4.639
0.084,-0.096,-1.295,-10.986,67.993,-16.174
0.141,-0.212,-1.054,-26.855,25.635,-9.827
0.195,-0.193,-0.955,-28.625,15.442,12.634
0.192,-0.105,-0.974,-17.334,19.348,31.616
0.182,-0.001,-1.065,-17.334,23.193,40.955
0.173,0.044,-1.135,-15.137,17.151,41.077
0.199,0.055,-1.156,-17.944,1.648,37.842
0.246,0.040,-1.128,-22.766,-19.897,33.386
0.303,0.041,-1.064,-26.855,-41.809,30.579
0.348,0.055,-0.994,-26.367,-58.533,28.931
0.384,0.069,-0.940,-22.278,-68.420,25.879
0.424,0.076,-0.919,-17.456,-72.937,21.057
0.456,0.072,-0.918,-11.414,-75.378,16.418
0.483,0.075,-0.920,-6.348,-78.186,14.221
0.508,0.097,-0.930,-4.333,-82.520,14.221
0.525,0.121,-0.945,-4.456,-89.172,13.794
0.549,0.131,-0.962,-5.615,-99.426,12.756
0.552,0.142,-0.963,-8.484,-115.112,12.695
0.559,0.165,-0.945,-14.160,-133.789,13.245
0.596,0.183,-0.909,-21.484,-153.259,11.841
0.606,0.205,-0.851,-24.719,-173.157,7.935
0.592,0.212,-0.776,-24.780,-190.247,1.099
0.594,0.217,-0.712,-26.123,-200.134,-8.179
0.624,0.203,-0.663,-25.818,-203.125,-20.935
0.647,0.151,-0.623,-19.165,-203.125,-34.973
0.671,0.091,-0.578,-12.695,-202.332,-45.227
0.726,0.045,-0.519,-10.315,-200.684,-46.631
0.761,0.066,-0.467,-9.705,-199.219,-42.114
0.812,0.091,-0.414,-6.714,-196.838,-39.673
0.822,0.068,-0.379,-1.404,-192.139,-42.542
0.840,0.027,-0.356,-6.592,-183.655,-46.448
0.875,0.014,-0.329,-24.414,-172.791,-47.302
0.906,-0.004,-0.303,-33.020,-163.452,-47.729
0.939,-0.059,-0.278,-26.489,-156.494,-48.889

1.342,-0.103,0.605,26.489,24.048,7.446
1.377,-0.149,0.798,28.687,44.250,11.414
1.318,-0.228,0.954,17.273,79.895,19.226
1.257,-0.307,1.038,3.662,137.878,29.175
1.107,-0.363,1.069,-4.944,214.661,37.964
0.978,-0.378,1.003,6.470,299.988,51.575
0.800,-0.312,0.870,34.058,383.850,77.393
0.560,-0.106,0.652,64.514,469.238,101.013
0.213,0.099,0.315,99.915,557.190,113.647
-0.082,0.335,-0.163,129.761,644.043,113.403
-0.278,0.525,-0.750,155.334,711.853,103.882
-0.290,0.695,-1.416,183.777,733.398,85.632
-0.154,0.764,-2.026,191.467,673.462,60.547
-0.256,0.659,-2.404,145.813,535.828,31.311
-0.185,0.554,-2.383,43.335,341.675,12.451
-0.100,0.272,-1.977,-27.100,150.146,-0.122
0.001,0.003,-1.483,-67.932,9.827,-4.578
0.074,-0.098,-1.104,-90.271,-60.486,6.653
0.117,-0.119,-0.948,-86.060,-73.730,20.935
0.129,-0.080,-0.954,-71.899,-58.472,29.419
0.128,-0.050,-0.996,-54.016,-41.748,32.776
0.145,-0.016,-1.061,-37.537,-31.860,33.203
0.211,0.022,-1.113,-26.733,-33.142,32.471
0.242,0.053,-1.121,-19.043,-45.654,31.250
0.250,0.092,-1.094,-18.738,-64.453,30.884
0.296,0.085,-1.063,-20.935,-84.229,30.884
0.335,0.094,-1.018,-20.142,-107.178,35.095
0.377,0.147,-0.967,-23.926,-127.258,38.940
0.427,0.204,-0.929,-26.123,-142.639,38.513
0.464,0.255,-0.898,-21.851,-156.982,34.790
0.515,0.304,-0.863,-17.395,-170.715,27.893
0.566,0.319,-0.820,-12.085,-182.617,14.709
0.621,0.301,-0.776,-9.644,-191.650,-2.319
0.670,0.260,-0.726,-9.644,-197.937,-21.667
0.688,0.186,-0.676,-5.859,-201.904,-39.429
0.709,0.119,-0.632,-4.089,-202.759,-49.377
0.724,0.079,-0.585,-5.798,-201.111,-50.598
0.744,0.078,-0.538,-10.376,-200.073,-44.617
0.767,0.113,-0.496,-17.090,-200.317,-35.400
0.782,0.150,-0.453,-20.996,-200.073,-28.748
0.787,0.176,-0.411,-21.179,-197.693,-28.076
0.803,0.166,-0.374,-17.334,-192.688,-34.302
0.841,0.124,-0.357,-10.071,-186.279,-42.725
0.876,0.073,-0.345,-2.319,-180.603,-50.171
0.904,0.006,-0.326,2.197,-176.636,-57.434
0.923,-0.051,-0.290,1.221,-174.622,-60.547
0.944,-0.094,-0.243,-1.953,-172.974,-59.021
0.972,-0.140,-0.193,-1.953,-169.678,-55.237
1.002,-0.185,-0.153,-1.465,-163.086,-49.133
1.018,-0.210,-0.114,-3.784,-153.809,-39.429

1.269,-0.018,0.675,8.179,21.545,0.610
1.229,0.043,0.901,23.499,53.833,0.854
1.281,-0.055,1.043,58.472,105.591,0.061
1.235,-0.176,1.135,64.270,175.598,0.427
1.097,-0.243,1.122,41.931,257.202,9.033
0.851,-0.263,0.996,34.912,354.431,21.057
0.756,-0.207,0.729,52.917,450.012,36.804
0.628,-0.109,0.381,79.285,528.503,54.688
0.456,0.042,-0.000,96.436,581.360,67.993
0.321,0.205,-0.404,110.596,607.483,72.205
0.156,0.322,-0.859,131.042,606.384,66.833
0.019,0.462,-1.285,132.690,578.613,58.105
-0.110,0.572,-1.634,118.713,518.677,45.593
-0.139,0.558,-1.887,97.168,431.091,26.550
-0.108,0.468,-1.925,56.030,322.754,4.028
-0.046,0.256,-1.744,12.451,208.008,-15.869
0.037,0.013,-1.478,-15.442,110.107,-24.658
0.111,-0.135,-1.237,-33.081,43.213,-18.311
0.143,-0.164,-1.079,-34.729,7.751,-2.441
0.127,-0.110,-1.031,-30.029,-2.930,13.855
0.088,-0.064,-1.067,-25.757,-3.601,23.804
0.119,-0.020,-1.111,-26.184,-7.568,27.344
0.207,-0.015,-1.121,-28.687,-20.020,28.503
0.300,-0.021,-1.069,-29.968,-39.429,29.419
0.428,0.002,-0.960,-33.325,-60.181,32.593
0.472,0.023,-0.848,-28.137,-75.134,35.461
0.493,0.089,-0.783,-24.109,-76.477,37.292
0.526,0.163,-0.775,-17.944,-68.359,37.354
0.566,0.228,-0.802,-8.179,-58.594,31.921
0.593,0.258,-0.832,-0.732,-51.575,21.423
0.606,0.238,-0.862,2.014,-49.316,8.850
0.615,0.201,-0.891,0.061,-50.781,-0.732
0.625,0.160,-0.921,-4.211,-56.824,-6.042
0.605,0.127,-0.954,-7.935,-67.810,-9.216
0.607,0.107,-0.990,-13.062,-82.275,-8.423
0.597,0.107,-1.003,-21.240,-101.929,-6.592
0.556,0.101,-0.973,-28.259,-124.268,-7.080
0.538,0.100,-0.920,-29.907,-145.508,-9.949
0.548,0.104,-0.861,-26.306,-162.903,-13.611
0.555,0.109,-0.795,-20.142,-177.368,-17.883
0.574,0.121,-0.728,-18.188,-187.988,-21.118
0.605,0.146,-0.670,-23.376,-193.665,-24.353
0.625,0.163,-0.614,-26.550,-196.167,-29.663
0.656,0.164,-0.566,-25.330,-196.411,-37.048
0.701,0.141,-0.527,-21.118,-195.007,-46.753
0.742,0.095,-0.493,-16.541,-192.688,-56.763
0.788,0.034,-0.462,-14.099,-190.247,-65.125
0.836,-0.053,-0.433,-13.000,-188.354,-70.923
0.881,-0.161,-0.398,-16.113,-186.707,-72.571
0.922,-0.241,-0.349,-23.560,-184.753,-67.993

1.282,0.003,0.644,14.404,96.924,26.001
1.331,-0.036,0.800,18.127,132.507,23.193
1.227,-0.099,0.917,23.865,184.021,21.240
1.045,-0.143,0.952,29.053,253.906,28.381
0.844,-0.088,0.865,34.241,342.712,41.504
0.663,-0.033,0.620,53.162,441.650,52.246
0.481,0.042,0.209,77.148,530.762,56.274
0.314,0.162,-0.286,94.055,594.177,57.190
0.164,0.273,-0.842,119.202,616.394,55.481
0.074,0.381,-1.343,135.376,594.910,50.842
-0.011,0.485,-1.701,123.779,528.687,41.077
-0.019,0.469,-1.887,97.717,430.664,24.292
0.064,0.361,-1.840,54.138,315.552,4.395
0.141,0.146,-1.592,11.536,200.867,-8.057
0.203,0.020,-1.269,-13.794,110.291,-7.141
0.204,-0.027,-1.001,-20.447,60.120,2.869
0.186,-0.017,-0.904,-20.081,50.049,15.259
0.172,0.002,-0.953,-20.264,59.692,23.499
0.159,0.006,-1.055,-15.503,65.247,24.780
0.127,0.019,-1.138,-12.634,59.387,24.231
0.092,0.034,-1.214,-12.024,45.349,24.414
0.097,0.071,-1.266,-14.709,24.109,24.109
0.149,0.085,-1.263,-16.968,-3.052,20.996
0.194,0.072,-1.210,-18.188,-33.691,14.343
0.266,0.063,-1.124,-21.118,-62.988,8.789
0.355,0.058,-1.034,-21.484,-87.463,6.287
0.399,0.052,-0.958,-20.020,-105.042,5.371
0.428,0.062,-0.903,-21.851,-114.990,6.470
0.494,0.070,-0.878,-22.339,-120.361,9.277
0.539,0.064,-0.863,-20.630,-123.413,11.597
0.565,0.064,-0.854,-25.208,-126.099,14.526
0.585,0.069,-0.854,-32.776,-129.700,17.822
0.577,0.078,-0.850,-39.795,-135.193,20.569
0.576,0.093,-0.841,-43.152,-141.663,21.301
0.618,0.141,-0.843,-37.170,-147.400,19.592
0.637,0.174,-0.826,-18.616,-154.602,12.085
0.638,0.198,-0.796,-2.441,-162.292,-0.366
0.659,0.198,-0.766,2.747,-168.640,-13.367
0.686,0.171,-0.728,0.061,-175.415,-26.917
0.706,0.133,-0.676,-5.737,-184.082,-37.598
0.735,0.087,-0.616,-11.108,-192.200,-43.335
0.750,0.040,-0.555,-13.916,-196.960,-44.678
0.761,0.013,-0.503,-16.968,-197.266,-42.664
0.762,0.001,-0.459,-17.700,-193.115,-38.940
0.764,-0.006,-0.422,-14.648,-185.669,-34.790
0.781,-0.015,-0.402,-14.343,-175.476,-31.372
0.826,-0.010,-0.390,-19.714,-164.429,-28.503
0.881,-0.029,-0.378,-21.118,-156.311,-27.283
0.911,-0.066,-0.359,-16.785,-152.466,-27.649
0.923,-0.091,-0.328,-13.062,-150.330,-26.550

1.290,-0.040,0.765,-1.099,-24.292,0.549
1.387,-0.040,0.934,-5.005,-1.831,7.080
1.308,-0.090,1.063,6.348,47.119,3.479
1.128,-0.130,1.095,23.926,123.718,1.648
1.003,-0.148,1.026,39.246,217.224,8.728
0.941,-0.146,0.893,54.565,316.101,20.508
0.817,-0.191,0.675,73.059,401.733,30.029
0.708,-0.188,0.382,78.552,468.201,42.175
0.502,-0.092,0.104,73.486,515.625,58.533
0.359,0.020,-0.193,84.595,540.466,70.923
0.269,0.151,-0.457,98.389,548.462,78.125
0.230,0.252,-0.747,96.924,537.842,78.674
0.089,0.314,-1.001,79.529,516.785,68.298
-0.022,0.375,-1.260,58.960,488.281,51.941
-0.109,0.345,-1.522,54.138,444.763,34.790
-0.131,0.310,-1.701,39.001,382.080,19.348
-0.113,0.212,-1.779,15.137,301.025,7.568
-0.052,0.105,-1.744,-1.648,210.449,-0.061
0.002,0.004,-1.579,-15.259,123.657,-1.343
0.036,-0.067,-1.389,-23.071,56.274,-1.282
0.039,-0.093,-1.263,-22.644,16.541,0.488
0.071,-0.068,-1.237,-16.357,-1.526,3.662
0.184,-0.057,-1.238,-10.681,-16.541,4.517
0.207,-0.088,-1.168,-10.803,-39.917,2.747
0.240,-0.091,-1.077,-16.846,-64.148,4.517
0.301,-0.080,-1.007,-18.921,-83.435,11.169
0.343,-0.046,-0.968,-22.278,-95.642,18.616
0.378,-0.010,-0.950,-26.428,-104.736,24.231
0.404,0.004,-0.930,-28.015,-113.708,27.466
0.421,0.032,-0.901,-30.579,-121.704,29.846
0.425,0.058,-0.878,-30.212,-128.296,31.555
0.463,0.106,-0.873,-26.245,-133.240,33.630
0.522,0.136,-0.876,-20.752,-137.390,32.837
0.573,0.156,-0.874,-15.381,-143.616,27.283
0.607,0.191,-0.862,-9.949,-153.381,19.714
0.629,0.224,-0.831,-4.150,-165.405,9.705
0.649,0.253,-0.779,1.038,-178.894,-2.014
0.679,0.271,-0.717,4.578,-192.200,-15.991
0.707,0.246,-0.648,5.798,-203.918,-32.043
0.755,0.182,-0.592,0.732,-213.562,-46.082
0.795,0.105,-0.542,-12.024,-221.130,-55.176
0.824,0.027,-0.487,-24.170,-226.624,-58.594
0.843,-0.044,-0.424,-30.334,-229.126,-56.580
0.868,-0.104,-0.363,-35.034,-226.746,-49.438
0.881,-0.123,-0.302,-43.030,-219.910,-36.987
0.896,-0.099,-0.248,-51.941,-208.557,-21.973
0.909,-0.060,-0.204,-51.331,-193.909,-9.949
0.920,-0.032,-0.176,-38.818,-176.697,-4.639
0.926,-0.016,-0.164,-23.010,-158.691,-4.517
0.935,-0.010,-0.168,-10.925,-140.625,-7.202

1.233,-0.094,0.662,18.555,35.583,18.250
1.194,-0.069,0.842,41.138,60.547,24.231
1.275,-0.032,1.034,55.603,102.478,30.212
1.235,-0.145,1.175,70.557,162.659,31.311
1.050,-0.281,1.229,67.444,247.314,32.715
0.816,-0.249,1.208,41.260,355.042,44.312
0.622,-0.159,0.985,54.504,467.468,60.181
0.435,-0.002,0.619,99.976,576.599,76.172
0.140,0.248,0.074,140.930,663.940,87.097
-0.094,0.563,-0.604,174.072,719.055,87.769
-0.268,0.823,-1.305,202.209,724.670,79.285
-0.292,1.011,-1.863,198.059,666.626,61.157
-0.252,0.946,-2.189,153.687,550.415,20.752
-0.254,0.611,-2.214,74.890,401.794,-29.236
-0.116,0.214,-2.025,-3.235,247.559,-56.213
0.053,-0.106,-1.634,-43.091,111.450,-52.856
0.150,-0.179,-1.225,-48.096,21.545,-33.569
0.104,-0.263,-0.995,-36.499,-8.972,-14.038
0.157,-0.175,-0.983,-33.508,-3.174,10.986
0.172,-0.025,-1.066,-26.428,6.714,32.715
0.178,0.023,-1.148,-9.949,5.554,35.950
0.180,0.035,-1.209,-11.963,-7.507,33.630
0.202,0.032,-1.227,-23.010,-31.128,32.959
0.246,0.027,-1.195,-30.334,-61.462,34.546
0.283,0.032,-1.122,-38.086,-91.431,37.354
0.316,0.060,-1.061,-43.945,-114.563,39.001
0.362,0.088,-1.030,-43.823,-132.812,39.246
0.387,0.105,-0.996,-41.687,-149.719,38.696
0.437,0.146,-0.962,-38.147,-167.236,39.307
0.504,0.184,-0.913,-33.081,-183.777,37.476
0.561,0.208,-0.862,-26.489,-199.036,30.396
0.621,0.227,-0.802,-24.292,-212.097,20.142
0.658,0.237,-0.739,-24.719,-222.717,9.033
0.679,0.245,-0.673,-26.184,-230.591,-1.892
0.701,0.245,-0.605,-26.978,-234.497,-13.550
0.749,0.215,-0.544,-22.766,-235.596,-24.658
0.799,0.173,-0.481,-21.729,-236.328,-31.860
0.832,0.141,-0.408,-26.855,-235.413,-33.936
0.846,0.115,-0.337,-32.288,-230.469,-32.471
0.866,0.103,-0.279,-36.560,-219.910,-28.931
0.878,0.098,-0.241,-35.889,-204.041,-25.024
0.881,0.094,-0.226,-29.175,-184.204,-22.339
0.898,0.076,-0.232,-22.705,-162.842,-21.851
0.917,0.034,-0.253,-17.456,-143.616,-25.269
0.923,-0.014,-0.281,-11.353,-128.479,-29.480
0.911,-0.044,-0.307,-4.578,-118.042,-30.029
0.912,-0.061,-0.330,3.906,-112.000,-28.381
0.925,-0.068,-0.340,12.878,-110.168,-26.306
0.934,-0.046,-0.327,15.198,-113.037,-22.278
0.927,-0.001,-0.288,11.536,-118.896,-17.395

1.202,-0.036,0.814,12.817,22.827,2.686
1.259,-0.007,1.019,32.715,49.438,10.925
1.353,-0.068,1.239,50.476,94.177,13.123
1.296,-0.135,1.457,37.659,152.954,12.634
1.088,-0.191,1.659,23.132,237.305,19.897
0.934,-0.262,1.728,20.935,341.003,36.804
0.596,-0.267,1.577,28.564,474.365,59.937
0.197,-0.102,1.142,36.560,627.808,79.895
-0.237,0.139,0.501,67.627,780.273,92.773
-0.547,0.459,-0.435,119.812,889.404,101.135
-0.779,0.691,-1.447,168.701,935.425,95.703
-0.816,0.871,-2.447,194.580,885.254,77.576
-0.726,0.908,-3.020,165.588,722.534,40.405
-0.577,0.691,-3.064,98.694,480.286,-13.733
-0.172,0.313,-2.623,6.897,215.454,-56.152
-0.003,-0.059,-1.881,-61.707,0.183,-78.735
-0.167,-0.356,-1.139,-72.021,-113.831,-79.407
-0.113,-0.429,-0.749,-58.411,-137.146,-58.044
0.148,-0.316,-0.677,-65.125,-106.995,-10.803
0.226,-0.184,-0.772,-53.101,-69.214,30.762
0.191,-0.110,-0.860,-38.269,-46.204,46.814
0.156,-0.048,-0.958,-36.499,-32.715,55.359
0.189,-0.000,-1.047,-39.246,-29.541,60.425
0.206,0.009,-1.101,-41.138,-38.025,59.998
0.226,0.011,-1.131,-45.959,-55.359,56.030
0.303,0.022,-1.139,-50.293,-77.881,53.650
0.374,0.007,-1.118,-48.889,-104.309,52.063
0.420,0.024,-1.070,-46.509,-131.042,55.298
0.470,0.101,-1.001,-44.800,-155.396,61.829
0.531,0.187,-0.921,-36.499,-175.598,64.209
0.632,0.228,-0.840,-25.574,-193.665,64.026
0.693,0.289,-0.746,-21.729,-208.435,62.073
0.732,0.323,-0.655,-21.118,-215.332,53.101
0.776,0.329,-0.591,-23.193,-216.736,40.955
0.805,0.328,-0.538,-26.245,-214.905,26.306
0.812,0.302,-0.489,-26.184,-208.740,8.301
0.798,0.246,-0.458,-21.973,-198.730,-8.972
0.786,0.172,-0.453,-17.334,-185.181,-23.254
0.787,0.104,-0.470,-14.038,-169.556,-31.250
0.784,0.062,-0.496,-9.705,-155.701,-33.325
0.772,0.045,-0.515,-1.831,-146.179,-32.776
0.758,0.029,-0.538,9.583,-140.747,-33.936
0.760,0.006,-0.565,19.470,-138.000,-36.987
0.790,-0.009,-0.577,20.020,-139.648,-39.734
0.831,-0.026,-0.560,15.564,-147.766,-40.222
0.825,-0.038,-0.501,7.812,-160.156,-36.865
0.831,-0.031,-0.429,-0.916,-170.044,-33.936
0.877,-0.048,-0.370,-3.296,-175.781,-31.372
0.901,-0.058,-0.297,-3.845,-181.030,-26.794
0.911,-0.049,-0.220,-6.348,-182.190,-22.644

1.219,-0.036,0.787,36.011,50.476,-2.197
1.209,-0.016,0.930,54.688,90.576,1.709
1.212,-0.091,0.983,81.299,144.165,2.625
1.089,-0.073,1.013,78.430,209.595,11.230
0.983,-0.012,1.042,68.848,281.372,23.010
0.996,-0.020,1.039,78.979,348.755,30.762
0.771,-0.119,0.966,93.506,425.110,35.278
0.660,-0.087,0.745,83.740,505.859,48.157
0.434,-0.002,0.379,79.163,583.679,62.805
0.155,0.170,-0.148,92.957,650.085,69.519
-0.007,0.386,-0.826,117.859,691.101,67.871
-0.106,0.498,-1.479,136.169,684.753,53.345
-0.125,0.540,-1.977,121.277,614.319,31.433
0.019,0.500,-2.248,88.013,489.624,2.197
0.013,0.427,-2.223,44.678,336.487,-36.011
0.050,0.070,-1.922,21.790,183.167,-65.430
-0.047,-0.208,-1.433,-8.789,57.251,-63.904
0.131,-0.338,-1.172,-33.630,-11.902,-35.034
0.230,-0.233,-1.069,-31.616,-30.457,5.554
0.273,-0.122,-1.027,-20.081,-33.875,29.297
0.242,-0.069,-1.002,-21.606,-37.659,37.170
0.270,-0.047,-1.019,-25.635,-45.166,43.396
0.325,-0.022,-1.030,-33.508,-59.875,50.354
0.361,-0.005,-1.009,-43.579,-77.332,55.237
0.387,0.026,-0.975,-54.077,-93.445,57.495
0.396,0.051,-0.941,-62.256,-107.117,58.105
0.452,0.078,-0.924,-64.331,-118.408,58.472
0.521,0.109,-0.902,-59.998,-129.639,58.655
0.575,0.144,-0.862,-53.833,-141.541,55.725
0.615,0.183,-0.819,-45.166,-152.466,50.232
0.628,0.219,-0.780,-34.485,-161.438,42.908
0.629,0.258,-0.756,-26.428,-167.542,32.349
0.663,0.279,-0.748,-18.677,-170.105,16.846
0.720,0.267,-0.732,-9.338,-175.598,0.244
0.770,0.231,-0.690,-8.179,-187.500,-13.184
0.790,0.188,-0.620,-18.250,-202.026,-23.071
0.796,0.142,-0.544,-28.381,-213.806,-28.076
0.806,0.092,-0.483,-34.912,-221.130,-28.625
0.832,0.045,-0.432,-42.908,-224.487,-26.428
0.851,0.017,-0.381,-51.208,-224.548,-22.156
0.866,0.009,-0.332,-54.077,-221.985,-16.296
0.871,0.010,-0.289,-49.988,-216.797,-11.597
0.883,-0.009,-0.260,-41.687,-208.862,-9.644
0.901,-0.027,-0.242,-38.879,-199.402,-8.057
0.794,-0.028,-0.167,-40.527,-190.857,-6.653
0.620,0.004,-0.033,-35.339,-185.425,-5.615
0.985,0.019,-0.099,-33.936,-177.429,-5.615
1.216,0.012,-0.125,-48.950,-159.729,-11.536
1.104,-0.035,-0.068,-54.382,-146.118,-21.545
1.007,-0.091,-0.019,-44.250,-136.841,-26.672

1.177,-0.037,0.780,80.566,56.213,-6.531
1.196,-0.045,0.913,103.760,102.112,-3.418
1.221,-0.060,1.025,120.850,161.438,-5.615
1.090,-0.092,1.131,130.615,232.117,-1.282
1.033,-0.137,1.184,139.526,314.148,6.958
0.803,-0.242,1.108,155.029,408.142,19.287
0.584,-0.203,0.831,163.452,510.437,40.710
0.286,0.008,0.371,171.692,608.032,64.148
0.218,0.261,-0.295,191.895,675.720,79.163
0.128,0.489,-0.953,200.195,691.956,77.881
0.044,0.611,-1.490,188.110,653.503,58.044
0.016,0.617,-1.854,157.043,567.383,27.222
0.050,0.445,-2.002,108.215,444.458,-3.662
0.057,0.173,-1.964,49.683,305.786,-25.024
0.334,0.132,-1.759,-10.376,173.828,-26.550
0.158,-0.046,-1.317,-27.527,73.608,-35.889
0.175,-0.339,-1.019,-25.391,18.494,-33.630
0.268,-0.298,-0.929,-40.527,7.385,0.671
0.318,-0.153,-0.979,-27.710,15.808,35.400
0.270,-0.011,-1.059,-20.752,17.334,49.316
0.245,0.078,-1.116,-28.503,9.766,50.903
0.255,0.103,-1.144,-29.724,-6.226,46.814
0.294,0.110,-1.117,-36.255,-29.480,41.809
0.345,0.089,-1.054,-45.410,-54.199,35.339
0.399,0.055,-0.985,-52.490,-75.378,28.259
0.445,0.034,-0.933,-54.077,-90.332,22.156
0.500,0.017,-0.907,-51.147,-100.220,18.738
0.518,-0.000,-0.887,-48.279,-108.398,17.151
0.545,0.009,-0.873,-48.828,-114.502,17.334
0.612,0.028,-0.868,-46.692,-119.934,18.433
0.655,0.045,-0.856,-42.358,-129.150,19.226
0.692,0.073,-0.822,-42.114,-141.418,18.738
0.713,0.090,-0.777,-42.419,-154.114,16.052
0.703,0.096,-0.724,-42.908,-164.978,11.475
0.718,0.115,-0.669,-45.898,-171.204,5.310
0.746,0.116,-0.622,-42.969,-173.401,-2.258
0.764,0.089,-0.584,-35.034,-173.767,-11.536
0.778,0.046,-0.554,-32.288,-172.729,-20.325
0.792,0.000,-0.532,-35.889,-170.654,-26.306
0.805,-0.040,-0.509,-39.185,-169.800,-28.442
0.826,-0.079,-0.482,-40.283,-169.861,-27.771
0.856,-0.098,-0.441,-42.114,-169.250,-24.719
0.875,-0.094,-0.394,-43.518,-167.786,-18.799
0.887,-0.078,-0.354,-43.335,-163.452,-13.000
0.889,-0.064,-0.327,-40.527,-156.006,-9.644
0.901,-0.061,-0.310,-35.095,-147.217,-8.972
0.915,-0.076,-0.300,-27.344,-138.611,-10.437
0.925,-0.109,-0.293,-20.630,-131.104,-13.000
0.928,-0.122,-0.283,-18.372,-125.366,-12.817
0.936,-0.120,-0.277,-16.235,-121.216,-10.925

1.294,-0.072,0.798,-8.606,14.954,18.799
1.254,-0.088,1.074,13.794,53.162,19.226
1.376,-0.238,1.309,39.856,105.225,17.334
1.308,-0.338,1.455,31.433,173.340,28.137
0.952,-0.364,1.443,15.808,278.137,43.701
0.696,-0.327,1.195,27.954,401.306,60.730
0.518,-0.161,0.783,59.692,521.423,79.285
0.302,-0.016,0.228,106.079,618.408,95.825
0.121,0.204,-0.425,142.090,674.194,103.149
-0.000,0.428,-1.028,164.795,686.401,98.694
0.020,0.508,-1.536,186.279,641.724,79.956
0.025,0.550,-1.810,175.781,549.500,53.650
-0.003,0.487,-1.860,129.028,433.533,25.635
0.021,0.327,-1.774,82.397,314.026,3.784
0.059,0.129,-1.636,40.039,208.801,-4.883
0.125,0.031,-1.446,0.427,120.483,-2.319
0.156,0.015,-1.216,-18.494,54.199,5.066
0.164,0.026,-1.041,-21.606,19.165,9.399
0.162,0.051,-0.998,-20.386,11.108,9.888
0.191,0.058,-1.027,-16.663,10.254,6.958
0.223,0.036,-1.053,-11.475,4.639,1.343
0.239,-0.000,-1.070,-9.277,-5.798,-0.732
0.287,-0.003,-1.093,-14.099,-20.996,1.709
0.341,-0.002,-1.100,-21.118,-41.382,5.554
0.384,0.005,-1.063,-28.442,-65.186,9.155
0.400,0.009,-1.004,-34.363,-87.158,13.062
0.456,0.026,-0.960,-39.734,-103.577,16.479
0.492,0.042,-0.918,-41.199,-115.723,18.921
0.560,0.073,-0.883,-38.818,-125.488,20.569
0.638,0.102,-0.850,-35.461,-135.071,21.362
0.696,0.128,-0.805,-35.217,-146.484,20.813
0.732,0.162,-0.746,-39.307,-157.532,18.616
0.740,0.187,-0.680,-40.100,-166.687,13.672
0.756,0.211,-0.631,-35.461,-171.509,7.568
0.767,0.226,-0.589,-30.151,-170.044,-1.892
0.771,0.228,-0.560,-24.536,-166.931,-13.428
0.783,0.206,-0.544,-20.142,-164.185,-26.184
0.798,0.140,-0.538,-18.433,-162.231,-39.246
0.818,0.057,-0.534,-23.560,-160.950,-49.194
0.833,-0.022,-0.523,-31.494,-161.316,-53.650
0.841,-0.100,-0.506,-34.058,-162.781,-53.162
0.860,-0.156,-0.479,-33.203,-164.795,-47.363
0.882,-0.176,-0.437,-32.410,-165.405,-37.598
0.882,-0.166,-0.388,-32.104,-164.368,-26.794
0.882,-0.124,-0.344,-33.081,-159.119,-16.846
0.891,-0.062,-0.317,-31.921,-150.452,-9.460
0.893,-0.009,-0.305,-24.780,-141.663,-6.165
0.896,0.021,-0.301,-15.808,-134.277,-8.301
0.897,0.032,-0.292,-8.118,-128.784,-13.733
0.895,0.023,-0.273,-2.991,-124.390,-20.447

1.447,-0.314,0.888,-32.715,-7.141,22.278
1.397,-0.279,1.109,-51.025,7.690,31.677
1.242,-0.249,1.277,-38.696,56.702,24.170
1.024,-0.252,1.383,7.568,141.113,25.269
0.896,-0.235,1.368,61.829,246.643,46.204
0.722,-0.160,1.212,92.712,367.859,69.214
0.565,-0.055,0.911,114.075,488.892,80.322
0.379,0.033,0.503,135.864,594.910,86.975
0.285,0.204,-0.129,149.048,664.490,96.069
0.176,0.450,-0.777,156.555,675.964,98.816
0.114,0.584,-1.266,164.429,633.728,82.581
0.146,0.652,-1.573,147.766,552.795,55.725
0.107,0.559,-1.665,110.962,449.463,24.109
0.167,0.367,-1.614,59.326,345.337,-2.258
0.229,0.152,-1.450,10.010,250.061,-13.611
0.237,-0.002,-1.244,-14.648,175.171,-11.353
0.236,-0.058,-1.099,-23.865,128.418,-0.977
0.216,-0.037,-1.036,-26.428,106.995,10.559
0.201,-0.009,-1.068,-21.667,97.717,17.456
0.233,-0.000,-1.124,-16.846,88.135,17.395
0.224,-0.019,-1.135,-18.066,70.923,15.808
0.221,0.001,-1.122,-20.081,51.636,14.648
0.283,0.017,-1.123,-13.794,33.691,14.221
0.334,0.023,-1.091,-6.042,13.489,11.414
0.378,0.011,-1.047,-5.188,-5.310,7.874
0.432,-0.005,-0.997,-6.165,-21.118,4.578
0.489,-0.029,-0.961,-6.226,-32.166,2.563
0.558,-0.029,-0.935,-7.874,-40.771,3.723
0.586,-0.013,-0.903,-7.874,-50.110,7.385
0.597,0.014,-0.880,-5.676,-56.702,10.803
0.612,0.034,-0.876,-4.272,-59.082,12.085
0.613,0.035,-0.886,-4.028,-60.059,11.414
0.596,0.039,-0.899,-6.714,-62.866,10.803
0.586,0.048,-0.918,-11.902,-67.383,10.559
0.582,0.058,-0.936,-15.137,-75.073,9.827
0.570,0.071,-0.936,-17.822,-87.952,8.972
0.559,0.072,-0.918,-20.752,-104.431,7.507
0.558,0.083,-0.891,-21.362,-121.094,5.737
0.569,0.111,-0.858,-16.541,-137.146,2.930
0.594,0.125,-0.820,-10.193,-152.405,-2.869
0.632,0.114,-0.776,-9.033,-165.527,-11.841
0.672,0.094,-0.723,-13.977,-176.941,-20.691
0.701,0.066,-0.665,-20.569,-186.523,-26.978
0.714,0.034,-0.603,-26.184,-192.993,-30.457
0.749,0.003,-0.546,-31.067,-194.641,-32.959
0.793,-0.037,-0.501,-31.494,-192.017,-34.119
0.828,-0.088,-0.461,-28.320,-187.561,-33.386
0.854,-0.114,-0.423,-28.381,-181.152,-29.419
0.877,-0.125,-0.389,-27.954,-172.913,-23.071
0.882,-0.126,-0.360,-22.461,-163.696,-16.174

1.157,0.047,0.778,42.419,56.274,-2.930
1.206,0.078,0.945,72.144,110.840,-3.052
1.256,0.127,1.144,85.999,175.903,-4.089
1.193,0.111,1.292,80.322,247.192,-4.517
0.963,0.032,1.275,70.007,334.656,-5.859
0.659,0.026,1.052,53.833,447.388,-4.211
0.415,0.016,0.616,58.899,565.918,-1.709
0.253,-0.039,-0.059,88.318,661.987,-0.610
0.141,-0.007,-0.786,111.328,708.984,5.676
0.076,0.092,-1.384,136.719,692.688,13.306
0.053,0.093,-1.839,156.738,617.920,10.803
0.049,0.081,-2.021,129.089,498.840,11.536
0.585,0.162,-2.255,73.792,364.685,10.559
0.271,-0.080,-1.870,52.673,233.826,0.061
-0.188,-0.290,-1.256,45.044,110.596,2.502
-0.267,-0.215,-0.856,17.944,48.889,28.931
0.165,0.015,-0.849,-0.916,44.434,53.833
0.255,0.070,-0.920,-5.127,62.073,51.331
0.136,0.020,-0.982,-4.211,68.420,36.560
0.114,-0.001,-1.076,-7.751,66.711,29.724
0.130,-0.038,-1.186,-8.606,56.702,28.259
0.148,-0.071,-1.267,-17.944,36.499,27.161
0.162,-0.096,-1.286,-30.151,9.277,26.367
0.199,-0.125,-1.267,-36.072,-19.470,25.269
0.236,-0.149,-1.238,-40.344,-46.936,24.780
0.272,-0.152,-1.208,-43.945,-71.411,25.635
0.310,-0.154,-1.175,-41.992,-93.750,27.832
0.353,-0.165,-1.127,-38.025,-114.014,31.799
0.385,-0.131,-1.064,-35.278,-132.507,40.710
0.437,-0.082,-0.998,-32.349,-148.682,52.368
0.465,-0.029,-0.934,-29.358,-162.598,63.293
0.492,0.056,-0.872,-30.518,-175.720,73.669
0.401,0.059,-0.764,-29.724,-187.622,83.374
0.405,0.144,-0.690,-31.982,-198.730,101.074
0.689,0.207,-0.763,-24.841,-204.956,106.873
0.771,0.318,-0.763,-11.230,-211.060,93.933
0.719,0.324,-0.689,11.414,-222.290,64.331
0.717,0.283,-0.617,21.240,-230.652,30.884
0.738,0.201,-0.549,8.423,-231.445,3.052
0.775,0.106,-0.488,-11.841,-228.333,-13.306
0.818,0.036,-0.425,-26.855,-224.304,-16.724
0.845,0.008,-0.362,-31.738,-217.651,-10.986
0.730,0.052,-0.254,-28.198,-206.787,-3.662
0.650,0.093,-0.170,-19.409,-192.505,-1.526
0.835,0.134,-0.207,-22.095,-169.861,-0.854
1.018,0.161,-0.271,-30.273,-140.381,-1.587
1.195,0.124,-0.353,-26.428,-121.216,-10.559
1.037,-0.002,-0.324,-11.414,-114.563,-20.386
0.936,-0.058,-0.269,-2.441,-114.380,-17.578
0.942,-0.012,-0.243,-0.610,-110.718,-6.104

1.262,-0.011,0.824,55.359,74.829,4.272
1.252,0.063,1.090,66.895,117.004,10.498
1.281,0.001,1.310,77.820,180.603,8.667
1.127,-0.099,1.462,68.115,272.583,8.850
0.805,-0.160,1.396,53.467,397.400,15.198
0.518,-0.122,0.975,59.204,536.926,28.564
0.292,-0.004,0.251,84.656,666.138,43.335
0.094,0.233,-0.642,117.126,735.107,54.504
-0.002,0.432,-1.409,144.775,730.957,50.415
-0.046,0.449,-1.969,158.264,653.259,28.381
-0.022,0.410,-2.188,123.718,518.372,9.216
0.077,0.219,-2.070,73.730,357.056,-4.517
0.163,-0.048,-1.723,29.419,206.543,-8.057
0.236,-0.134,-1.333,-4.578,98.022,4.578
0.217,-0.187,-1.057,-12.146,42.542,23.254
0.251,-0.075,-0.960,-14.954,27.466,43.945
0.250,0.031,-0.959,-15.259,27.649,58.105
0.167,0.148,-0.994,-13.550,28.076,60.547
0.131,0.197,-1.076,-10.681,26.062,53.406
0.122,0.203,-1.146,-15.198,14.465,42.908
0.152,0.160,-1.192,-25.818,-3.357,32.043
0.199,0.079,-1.213,-33.020,-27.283,23.193
0.247,0.039,-1.185,-41.199,-55.908,19.287
0.326,0.067,-1.099,-43.396,-85.022,20.569
0.393,0.119,-1.002,-34.302,-109.924,20.508
0.473,0.152,-0.913,-26.489,-127.625,16.052
0.551,0.175,-0.831,-22.949,-139.832,9.521
0.608,0.174,-0.751,-19.287,-147.888,4.456
0.659,0.193,-0.684,-20.447,-150.085,2.014
0.706,0.207,-0.638,-20.142,-148.132,-0.549
0.739,0.219,-0.617,-18.860,-143.188,-4.089
0.750,0.224,-0.616,-18.372,-136.719,-10.010
0.750,0.210,-0.631,-16.357,-130.554,-18.250
0.752,0.174,-0.657,-12.634,-126.953,-27.161
0.752,0.119,-0.688,-11.292,-127.319,-34.546
0.754,0.054,-0.705,-15.381,-132.263,-38.879
0.763,-0.017,-0.697,-22.278,-141.663,-40.588
0.781,-0.077,-0.664,-29.541,-153.503,-37.354
0.790,-0.110,-0.616,-39.429,-164.856,-29.297
0.809,-0.100,-0.559,-50.537,-171.875,-18.677
0.819,-0.071,-0.503,-53.223,-174.500,-8.423
0.837,-0.035,-0.462,-48.279,-173.523,-2.197
0.858,0.001,-0.424,-40.222,-170.959,-1.160
0.872,0.017,-0.383,-29.846,-167.725,-3.784
0.883,0.009,-0.346,-18.311,-162.598,-10.986
0.890,-0.023,-0.326,-6.104,-155.151,-19.043
0.894,-0.056,-0.318,0.610,-146.606,-25.024
0.905,-0.069,-0.304,3.784,-137.512,-27.283
0.923,-0.066,-0.285,7.507,-130.798,-25.940
0.939,-0.048,-0.265,8.545,-126.465,-22.766

1.307,-0.120,0.902,40.039,37.048,6.409
1.372,-0.232,1.220,61.157,66.467,8.179
1.475,-0.374,1.494,64.453,116.760,10.559
1.268,-0.490,1.740,54.138,197.327,24.719
0.886,-0.546,1.825,67.139,321.289,47.180
0.505,-0.572,1.598,101.624,482.605,75.684
0.307,-0.342,1.016,132.324,647.644,103.027
-0.089,-0.016,0.230,176.514,777.405,125.183
-0.308,0.455,-0.842,231.873,833.435,146.362
-0.550,0.956,-1.795,257.202,813.843,156.799
-0.605,1.264,-2.517,239.563,708.679,137.390
-0.452,1.316,-2.792,166.626,532.043,84.717
-0.253,0.898,-2.482,71.594,315.308,11.230
-0.007,0.320,-1.781,-8.179,113.892,-35.767
0.106,-0.034,-1.123,-39.490,-14.526,-43.274
0.163,-0.082,-0.736,-35.583,-50.720,-21.118
0.211,0.020,-0.639,-24.536,-29.236,5.188
0.192,0.129,-0.797,-9.949,6.409,16.724
0.166,0.203,-1.043,-3.784,26.733,18.677
0.154,0.214,-1.194,-8.057,17.395,18.860
0.268,0.106,-1.165,-21.973,-13.672,21.240
0.211,0.046,-1.043,-48.889,-45.593,31.250
0.288,0.045,-1.053,-60.913,-62.378,42.847
0.348,0.074,-1.050,-60.547,-80.994,53.345
0.324,0.146,-0.996,-64.636,-100.769,59.021
0.351,0.243,-0.969,-66.650,-114.197,57.434
0.460,0.322,-0.951,-57.983,-126.892,48.950
0.567,0.353,-0.887,-41.809,-142.944,36.499
0.645,0.365,-0.792,-32.654,-158.142,22.095
0.732,0.382,-0.697,-30.518,-166.992,6.836
0.782,0.377,-0.606,-25.818,-168.579,-7.263
0.782,0.369,-0.536,-21.301,-163.635,-22.095
0.840,0.340,-0.496,-16.174,-153.259,-36.621
0.864,0.245,-0.467,-10.193,-142.639,-50.232
0.854,0.128,-0.458,-14.343,-129.761,-59.082
0.855,0.033,-0.479,-25.574,-116.028,-60.730
0.853,-0.053,-0.524,-29.846,-104.492,-55.725
0.803,-0.090,-0.578,-31.738,-96.680,-45.410
0.772,-0.059,-0.643,-35.767,-91.675,-32.593
0.741,-0.015,-0.700,-34.180,-91.614,-23.499
0.700,0.018,-0.738,-29.480,-96.191,-19.958
0.672,0.055,-0.768,-26.123,-104.187,-20.020
0.669,0.082,-0.777,-23.193,-116.943,-23.682
0.671,0.094,-0.749,-17.639,-134.155,-32.837
0.731,0.069,-0.706,-9.399,-154.480,-44.373
0.752,0.034,-0.615,-10.559,-177.429,-52.185
0.789,0.002,-0.507,-21.606,-195.068,-56.885
0.838,-0.048,-0.401,-27.039,-207.458,-60.913
0.890,-0.118,-0.305,-26.672,-213.135,-63.538
0.942,-0.177,-0.230,-27.405,-211.731,-62.256

1.146,-0.099,0.694,29.175,44.678,10.315
1.133,-0.091,0.861,56.091,86.243,9.766
1.214,-0.117,0.991,83.923,141.907,10.376
1.163,-0.153,1.072,99.182,203.491,17.700
1.011,-0.151,1.042,93.689,277.649,27.405
0.803,-0.113,0.927,97.839,367.554,34.851
0.738,-0.149,0.726,127.319,453.369,42.969
0.607,-0.131,0.450,149.048,525.635,54.504
0.449,0.029,0.095,148.376,586.060,67.444
0.289,0.232,-0.369,162.781,626.953,75.195
0.148,0.396,-0.906,184.753,637.695,73.975
0.077,0.500,-1.412,181.824,612.244,59.631
0.067,0.507,-1.782,152.222,540.283,36.316
0.091,0.354,-1.921,110.291,427.795,11.047
0.164,0.140,-1.853,55.542,297.729,-4.761
0.183,0.108,-1.565,1.953,176.453,-9.399
0.230,-0.161,-1.277,-2.991,86.975,-7.019
0.299,-0.128,-1.047,-16.113,38.757,18.188
0.299,-0.049,-0.941,-15.625,23.560,41.138
0.266,0.031,-0.949,-11.902,25.574,50.903
0.248,0.104,-0.988,-12.512,28.503,52.490
0.229,0.170,-1.010,-9.644,23.926,50.110
0.264,0.224,-1.063,-8.240,15.747,45.593
0.302,0.241,-1.098,-10.681,1.526,36.743
0.339,0.208,-1.078,-17.334,-18.799,26.672
0.376,0.151,-1.039,-24.841,-39.368,18.188
0.418,0.098,-1.016,-27.832,-55.542,13.428
0.440,0.071,-1.006,-28.198,-69.153,12.207
0.467,0.085,-1.010,-30.029,-81.543,13.916
0.482,0.106,-1.016,-30.151,-95.398,16.174
0.491,0.125,-1.002,-33.142,-111.633,17.029
0.474,0.142,-0.969,-38.635,-128.357,16.418
0.465,0.174,-0.936,-45.837,-143.616,13.916
0.495,0.222,-0.907,-51.697,-156.616,10.132
0.532,0.247,-0.875,-49.377,-171.814,3.418
0.562,0.265,-0.834,-43.274,-190.247,-3.479
0.592,0.273,-0.773,-43.030,-208.374,-13.611
0.623,0.249,-0.702,-45.532,-223.206,-27.527
0.671,0.181,-0.634,-47.363,-233.459,-42.297
0.698,0.090,-0.562,-49.561,-239.197,-53.650
0.736,0.022,-0.500,-54.626,-239.868,-58.533
0.770,-0.031,-0.445,-57.678,-236.816,-58.655
0.810,-0.090,-0.397,-54.077,-231.567,-57.617
0.862,-0.145,-0.347,-48.584,-224.548,-55.847
0.900,-0.184,-0.284,-43.884,-216.553,-51.697
0.931,-0.196,-0.221,-37.598,-205.505,-44.067
0.937,-0.192,-0.169,-30.884,-190.613,-34.424
0.957,-0.181,-0.133,-28.198,-172.546,-26.001
0.992,-0.169,-0.106,-29.785,-153.076,-20.142
1.021,-0.168,-0.086,-28.748,-134.949,-16.052

1.209,-0.113,0.733,73.792,74.768,-0.244
1.323,-0.262,0.932,98.206,119.080,-0.549
1.210,-0.321,1.099,93.262,178.223,8.179
1.183,-0.319,1.187,73.853,249.756,29.419
1.143,-0.404,1.212,68.298,334.473,49.561
0.807,-0.483,1.110,83.862,433.533,65.552
0.497,-0.367,0.727,109.192,543.091,91.614
0.227,-0.133,0.044,146.851,641.907,118.896
0.034,0.203,-0.815,185.425,694.946,135.681
-0.134,0.523,-1.597,207.947,684.387,133.545
-0.255,0.736,-2.210,203.613,605.774,112.061
-0.301,0.780,-2.476,160.034,470.581,77.881
-0.162,0.599,-2.319,98.450,304.138,40.222
0.037,0.272,-1.814,41.565,141.541,12.207
0.134,0.007,-1.237,-0.549,21.851,4.700
0.168,-0.042,-0.832,-9.338,-28.503,17.395
0.154,0.077,-0.691,-4.639,-20.264,37.109
0.151,0.202,-0.837,2.319,13.000,42.847
0.119,0.267,-1.034,7.141,31.372,37.598
0.155,0.306,-1.135,0.305,21.057,30.640
0.153,0.253,-1.116,-11.597,-4.089,24.292
0.171,0.212,-1.078,-26.062,-27.405,21.240
0.254,0.151,-1.074,-33.203,-46.143,21.912
0.308,0.121,-1.031,-41.565,-66.772,25.940
0.349,0.120,-0.970,-47.791,-84.656,31.067
0.400,0.160,-0.951,-48.401,-95.398,34.607
0.449,0.202,-0.965,-44.861,-104.248,34.607
0.494,0.238,-0.961,-39.978,-116.150,32.593
0.541,0.277,-0.941,-36.743,-130.859,30.029
0.610,0.315,-0.904,-36.743,-147.949,26.489
0.639,0.357,-0.833,-36.743,-167.786,20.447
0.675,0.386,-0.764,-32.654,-187.134,11.414
0.710,0.394,-0.694,-30.762,-200.806,-1.404
0.732,0.370,-0.614,-31.311,-207.336,-16.663
0.745,0.316,-0.550,-31.860,-207.764,-32.288
0.756,0.244,-0.516,-30.884,-203.552,-44.861
0.778,0.167,-0.501,-30.090,-196.228,-52.979
0.791,0.096,-0.497,-30.945,-188.843,-55.542
0.807,0.048,-0.493,-34.363,-182.678,-53.528
0.804,0.014,-0.478,-37.170,-177.856,-48.889
0.803,-0.013,-0.461,-38.574,-172.913,-43.396
0.808,-0.031,-0.454,-40.405,-167.114,-38.269
0.831,-0.030,-0.449,-43.945,-160.522,-33.508
0.831,-0.027,-0.425,-42.236,-155.945,-29.297
0.852,-0.026,-0.402,-34.363,-152.161,-26.917
0.871,-0.030,-0.374,-25.513,-149.658,-26.611
0.900,-0.040,-0.338,-21.057,-147.461,-28.137
0.938,-0.051,-0.293,-19.470,-145.813,-29.602
0.971,-0.077,-0.243,-16.785,-143.982,-30.334
0.969,-0.095,-0.182,-14.526,-141.235,-28.687

1.264,0.086,1.143,22.278,20.264,0.549
1.451,-0.016,1.454,59.143,59.082,3.662
1.402,-0.247,1.801,69.946,132.141,-1.282
1.080,-0.391,2.002,52.612,245.361,8.545
0.784,-0.351,1.911,40.039,393.494,39.612
0.370,-0.263,1.426,65.491,562.561,67.810
0.032,-0.036,0.719,109.741,725.098,88.806
-0.176,0.241,-0.238,162.476,838.135,107.727
-0.380,0.567,-1.187,204.529,872.192,115.479
-0.403,0.781,-1.991,221.558,823.059,104.309
-0.369,0.795,-2.491,189.453,689.392,70.618
-0.333,0.639,-2.496,111.938,501.343,28.137
-0.109,0.211,-2.185,41.748,307.678,-3.845
0.137,-0.008,-1.701,-18.127,145.813,-8.911
0.097,-0.371,-1.235,-42.175,42.603,-2.319
0.173,-0.284,-0.943,-54.199,0.916,34.729
0.195,-0.039,-0.852,-57.312,2.014,76.111
0.104,0.158,-0.918,-43.701,15.442,89.294
0.032,0.287,-1.007,-39.917,24.841,83.557
0.031,0.330,-1.074,-35.767,25.574,64.819
0.072,0.285,-1.118,-33.997,18.127,41.260
0.177,0.206,-1.126,-32.654,3.662,22.339
0.234,0.152,-1.078,-30.579,-16.357,9.338
0.301,0.146,-1.004,-23.743,-35.156,0.488
0.375,0.121,-0.935,-14.526,-46.875,-5.737
0.425,0.089,-0.919,-8.545,-48.584,-11.475
0.487,0.068,-0.958,-5.920,-46.814,-13.367
0.521,0.065,-0.988,-3.357,-49.866,-11.475
0.521,0.061,-0.974,-2.808,-58.716,-7.568
0.512,0.062,-0.967,-6.104,-66.650,-3.784
0.520,0.075,-0.983,-11.780,-72.510,-1.160
0.510,0.087,-1.007,-15.686,-80.383,-0.671
0.503,0.109,-1.033,-19.775,-91.064,-0.793
0.499,0.135,-1.054,-23.865,-106.995,-0.916
0.490,0.143,-1.051,-27.161,-128.906,-1.648
0.481,0.147,-1.019,-31.494,-153.625,-4.272
0.482,0.140,-0.971,-32.898,-178.223,-9.644
0.503,0.109,-0.905,-28.809,-200.989,-16.541
0.517,0.086,-0.841,-23.437,-221.069,-21.729
0.523,0.066,-0.782,-24.719,-235.779,-26.672
0.563,0.056,-0.742,-27.832,-245.544,-32.349
0.597,0.023,-0.707,-26.489,-255.005,-38.757
0.618,-0.025,-0.658,-23.132,-263.245,-44.495
0.653,-0.065,-0.601,-22.217,-267.883,-46.387
0.684,-0.075,-0.525,-24.963,-270.813,-42.603
0.741,-0.040,-0.442,-34.119,-273.071,-35.156
0.794,0.009,-0.348,-42.847,-274.536,-27.405
0.828,0.041,-0.256,-43.152,-273.987,-23.071
0.861,0.037,-0.178,-36.560,-269.714,-24.292
0.898,0.004,-0.115,-28.381,-261.414,-28.992

1.119,-0.048,0.862,41.443,58.777,9.094
1.161,-0.100,1.065,88.501,105.286,11.230
1.308,-0.111,1.215,101.257,154.968,21.179
1.183,-0.064,1.379,75.378,216.248,36.926
0.969,-0.097,1.449,67.383,301.453,44.922
0.803,-0.222,1.375,79.834,408.325,51.025
0.586,-0.291,1.123,88.135,524.658,58.716
0.249,-0.229,0.698,105.713,636.841,72.266
0.018,0.009,0.045,137.024,729.553,90.759
-0.096,0.302,-0.779,183.289,778.381,104.614
-0.177,0.553,-1.533,217.285,761.780,105.408
-0.190,0.757,-2.096,198.547,673.828,91.431
-0.186,0.736,-2.350,140.137,529.419,60.608
-0.083,0.485,-2.253,66.406,356.262,25.757
0.023,0.150,-1.871,1.038,190.674,8.118
0.123,-0.014,-1.395,-40.833,65.796,14.709
0.182,-0.029,-0.953,-48.706,-0.610,32.532
0.201,0.022,-0.738,-48.279,-7.507,44.128
0.163,0.097,-0.783,-43.030,19.104,49.438
0.146,0.150,-0.973,-30.273,46.448,47.852
0.147,0.172,-1.138,-22.644,54.138,41.809
0.141,0.165,-1.212,-23.315,39.856,36.194
0.181,0.143,-1.237,-27.161,14.282,33.325
0.229,0.122,-1.226,-31.433,-14.648,31.067
0.272,0.103,-1.158,-34.607,-44.739,28.992
0.333,0.101,-1.080,-34.790,-69.580,26.611
0.360,0.109,-1.038,-31.372,-87.341,23.437
0.359,0.132,-1.009,-28.625,-101.257,20.081
0.406,0.166,-0.973,-27.039,-112.427,15.991
0.475,0.180,-0.922,-22.217,-122.498,12.451
0.507,0.208,-0.872,-21.484,-132.568,11.292
0.568,0.245,-0.825,-26.855,-139.526,10.010
0.625,0.266,-0.790,-26.978,-144.531,3.906
0.646,0.266,-0.747,-23.010,-148.682,-4.639
0.653,0.258,-0.711,-21.118,-150.635,-14.160
0.647,0.242,-0.686,-19.958,-150.024,-23.560
0.663,0.217,-0.682,-18.433,-147.034,-32.104
0.685,0.170,-0.689,-15.442,-145.630,-40.344
0.714,0.099,-0.692,-13.489,-149.170,-47.729
0.740,0.018,-0.681,-15.869,-155.273,-51.697
0.773,-0.047,-0.652,-24.780,-161.438,-50.171
0.777,-0.093,-0.601,-35.645,-167.603,-43.640
0.792,-0.106,-0.550,-43.762,-169.373,-34.302
0.810,-0.088,-0.512,-45.837,-167.175,-23.865
0.807,-0.052,-0.484,-42.358,-162.292,-14.221
0.815,-0.008,-0.464,-37.354,-155.762,-7.568
0.833,0.027,-0.448,-30.334,-149.963,-6.592
0.855,0.036,-0.436,-18.433,-146.606,-12.268
0.866,0.027,-0.415,-5.737,-144.958,-20.874
0.881,0.008,-0.387,3.357,-143.066,-28.687

1.253,-0.131,0.728,23.560,25.146,0.610
1.264,-0.093,0.984,42.236,57.800,4.944
1.299,-0.216,1.185,79.407,112.000,5.615
1.217,-0.279,1.312,96.313,186.096,13.611
0.927,-0.228,1.331,91.675,289.124,36.316
0.731,-0.218,1.134,108.032,410.095,54.932
0.568,-0.158,0.737,130.737,526.428,65.979
0.417,-0.059,0.195,143.005,613.892,78.003
0.332,0.121,-0.409,153.015,652.527,91.064
0.153,0.319,-0.935,165.100,645.020,95.215
0.067,0.483,-1.394,174.683,601.257,88.440
0.058,0.578,-1.729,154.297,521.790,72.571
-0.004,0.586,-1.817,108.337,418.152,47.607
-0.025,0.470,-1.750,63.049,306.396,25.757
0.061,0.339,-1.582,21.545,206.238,14.648
0.132,0.186,-1.348,-9.766,125.549,8.667
0.174,0.072,-1.128,-26.611,69.214,8.789
0.179,0.031,-1.004,-32.898,40.222,14.343
0.180,0.037,-1.002,-32.104,32.654,20.203
0.232,0.034,-1.087,-28.442,30.640,23.621
0.206,0.032,-1.156,-27.222,21.301,26.306
0.246,0.022,-1.215,-24.780,6.897,27.405
0.264,-0.008,-1.225,-24.109,-14.526,28.748
0.273,0.004,-1.196,-34.607,-40.710,32.776
0.321,0.019,-1.135,-41.626,-64.941,36.682
0.335,0.019,-1.078,-42.297,-85.022,37.537
0.329,0.058,-1.049,-47.119,-99.365,37.659
0.404,0.123,-1.055,-48.889,-111.023,37.354
0.468,0.175,-1.035,-42.419,-127.563,33.569
0.500,0.211,-0.970,-36.255,-148.499,26.001
0.516,0.243,-0.897,-30.762,-166.321,16.113
0.561,0.259,-0.843,-24.109,-177.185,4.333
0.608,0.244,-0.804,-18.372,-185.120,-7.629
0.627,0.212,-0.750,-19.409,-193.787,-20.874
0.645,0.170,-0.690,-22.278,-202.393,-32.532
0.664,0.126,-0.641,-21.667,-208.923,-40.344
0.694,0.099,-0.603,-19.958,-214.050,-43.640
0.724,0.092,-0.561,-20.630,-219.299,-43.213
0.759,0.090,-0.503,-22.766,-225.037,-42.603
0.782,0.079,-0.439,-24.719,-228.210,-42.786
0.806,0.044,-0.396,-28.015,-226.196,-43.884
0.841,0.033,-0.357,-38.635,-217.102,-43.701
0.866,0.036,-0.309,-43.823,-206.543,-42.358
0.891,0.007,-0.261,-35.889,-195.923,-41.687
0.925,-0.040,-0.221,-26.306,-183.289,-41.870
0.951,-0.096,-0.186,-22.156,-169.556,-40.833
0.964,-0.141,-0.155,-22.217,-153.931,-36.255
0.965,-0.168,-0.134,-22.522,-137.939,-28.748
0.975,-0.177,-0.126,-17.700,-123.596,-20.996
0.983,-0.179,-0.134,-7.568,-111.145,-14.099

1.196,-0.041,0.744,24.353,35.339,7.996
1.315,-0.067,0.983,52.979,71.106,10.071
1.324,-0.205,1.167,82.275,126.038,9.644
1.186,-0.220,1.336,73.425,200.439,23.682
1.048,-0.293,1.359,69.885,292.725,43.091
0.831,-0.364,1.230,81.848,398.621,57.678
0.637,-0.297,0.862,92.102,503.418,79.529
0.356,-0.081,0.356,111.084,593.811,104.431
0.257,0.227,-0.287,142.944,649.109,123.840
0.120,0.509,-0.907,167.419,661.438,124.939
0.031,0.706,-1.390,168.640,625.916,107.788
0.062,0.701,-1.752,144.348,540.588,77.881
0.006,0.581,-1.833,89.783,424.744,45.471
0.006,0.396,-1.710,32.715,304.932,24.048
0.096,0.210,-1.499,-4.761,205.322,18.250
0.187,0.077,-1.261,-30.762,131.531,22.339
0.194,0.025,-1.073,-42.358,87.097,29.053
0.154,0.042,-1.008,-38.818,70.068,36.560
0.139,0.115,-1.059,-31.006,67.261,42.786
0.108,0.164,-1.140,-27.344,62.561,43.884
0.055,0.186,-1.190,-27.039,49.927,38.025
0.036,0.156,-1.234,-22.217,35.034,27.222
0.051,0.116,-1.260,-16.479,15.564,17.761
0.112,0.090,-1.251,-15.381,-8.972,11.780
0.212,0.065,-1.177,-13.977,-37.292,7.874
0.290,0.064,-1.074,-14.343,-64.941,6.714
0.373,0.099,-0.969,-15.137,-86.060,7.385
0.456,0.116,-0.881,-13.550,-100.708,7.385
0.489,0.133,-0.817,-14.587,-108.032,7.568
0.513,0.166,-0.791,-17.822,-107.117,9.216
0.545,0.200,-0.795,-16.785,-101.379,9.827
0.587,0.222,-0.821,-13.672,-96.252,6.165
0.602,0.235,-0.859,-11.169,-95.520,0.183
0.599,0.253,-0.893,-11.475,-100.525,-5.737
0.578,0.270,-0.923,-9.888,-109.802,-13.611
0.580,0.258,-0.949,-6.287,-122.620,-23.437
0.602,0.212,-0.957,-6.897,-139.343,-34.912
0.615,0.133,-0.925,-13.000,-160.400,-45.654
0.627,0.056,-0.850,-22.461,-182.922,-51.758
0.658,0.008,-0.758,-33.447,-202.820,-50.415
0.677,-0.014,-0.672,-42.969,-217.529,-43.213
0.696,-0.018,-0.603,-52.612,-225.159,-33.325
0.710,-0.010,-0.544,-61.340,-225.830,-25.146
0.723,0.013,-0.494,-64.636,-222.168,-18.127
0.740,0.046,-0.459,-59.570,-216.370,-12.939
0.752,0.087,-0.442,-48.828,-210.083,-11.963
0.770,0.120,-0.435,-36.194,-204.468,-16.541
0.779,0.122,-0.421,-23.682,-200.439,-27.161
0.800,0.080,-0.400,-11.230,-197.388,-41.382
0.829,-0.009,-0.377,-1.526,-196.106,-54.565

1.169,-0.075,0.808,12.085,23.865,9.033
1.291,-0.048,0.990,34.302,46.875,19.531
1.282,-0.081,1.204,57.068,91.187,24.170
1.208,-0.106,1.370,57.434,154.358,27.405
1.097,-0.187,1.388,52.612,237.427,36.804
0.867,-0.210,1.273,49.500,345.459,44.556
0.625,-0.236,1.023,66.589,459.290,53.223
0.503,-0.177,0.672,93.689,556.091,67.932
0.443,-0.030,0.232,110.229,620.117,86.731
0.242,0.165,-0.240,118.103,645.386,101.990
0.159,0.394,-0.727,119.751,644.714,105.225
0.171,0.467,-1.159,112.366,612.793,92.590
0.079,0.460,-1.463,85.510,548.462,67.871
-0.004,0.372,-1.649,53.711,465.637,46.082
0.017,0.255,-1.707,25.330,368.896,36.011
0.089,0.114,-1.598,1.404,270.630,32.654
0.110,0.016,-1.371,-20.264,185.547,34.729
0.094,-0.010,-1.182,-32.532,129.639,41.443
0.088,0.014,-1.087,-32.959,103.699,49.927
0.082,0.082,-1.073,-30.579,94.604,53.772
0.115,0.102,-1.108,-24.780,88.623,48.828
0.075,0.114,-1.115,-21.851,76.782,40.833
0.099,0.124,-1.145,-16.724,63.171,33.630
0.118,0.127,-1.170,-8.484,46.875,25.818
0.110,0.130,-1.199,-3.906,28.503,18.494
0.128,0.136,-1.233,-0.793,9.888,12.085
0.165,0.129,-1.235,0.122,-11.780,6.470
0.210,0.125,-1.196,-1.038,-37.476,1.160
0.259,0.114,-1.143,-1.709,-62.256,-2.563
0.300,0.100,-1.089,-3.296,-83.191,-5.127
0.328,0.087,-1.059,-6.409,-98.389,-6.653
0.323,0.078,-1.045,-6.958,-109.192,-7.019
0.310,0.092,-1.044,-7.385,-117.615,-6.531
0.322,0.137,-1.048,-6.836,-126.221,-7.202
0.362,0.180,-1.038,-2.197,-140.137,-11.414
0.423,0.198,-1.019,2.380,-160.950,-17.944
0.452,0.195,-0.980,8.057,-187.805,-25.024
0.503,0.173,-0.921,5.432,-216.309,-30.640
0.562,0.126,-0.835,-8.911,-243.042,-36.011
0.609,0.074,-0.737,-26.672,-266.602,-39.246
0.651,0.013,-0.643,-38.391,-284.058,-39.429
0.691,-0.040,-0.552,-44.739,-293.030,-36.194
0.729,-0.070,-0.469,-49.438,-295.105,-29.236
0.759,-0.070,-0.395,-50.476,-291.138,-19.836
0.786,-0.041,-0.334,-46.082,-282.959,-9.888
0.813,0.002,-0.280,-36.499,-273.132,-3.113
0.836,0.057,-0.226,-22.705,-261.719,-1.282
0.844,0.095,-0.174,-7.324,-249.573,-3.174
0.866,0.117,-0.137,0.732,-236.328,-9.583
0.905,0.141,-0.103,-0.122,-221.985,-17.944

1.237,0.009,1.022,-6.592,-16.235,6.226
1.295,0.067,1.311,-0.793,-4.028,11.414
1.350,0.127,1.640,7.629,36.438,12.939
1.291,0.004,1.931,37.537,109.131,5.615
0.952,-0.173,2.048,64.514,227.295,1.526
0.591,-0.206,1.931,63.110,384.644,13.977
0.405,-0.188,1.581,74.158,545.715,34.424
0.316,-0.202,1.110,99.243,679.077,50.293
0.243,-0.156,0.576,92.041,759.521,66.833
0.036,-0.018,-0.054,78.491,787.537,86.182
-0.254,0.214,-0.754,89.722,784.119,106.689
-0.400,0.501,-1.444,105.164,752.319,115.479
-0.448,0.678,-2.034,106.567,678.833,100.403
-0.467,0.645,-2.390,81.421,555.237,65.491
-0.385,0.435,-2.434,29.480,397.644,28.381
-0.274,0.109,-2.179,-21.179,232.483,3.845
-0.145,-0.091,-1.780,-55.481,90.271,0.488
-0.043,-0.168,-1.382,-60.852,-5.432,9.399
-0.020,-0.138,-1.128,-57.678,-45.593,18.616
0.115,-0.088,-1.052,-51.025,-49.255,23.560
0.121,-0.085,-1.034,-40.222,-45.776,22.034
0.177,-0.055,-1.035,-38.391,-46.509,20.813
0.247,-0.058,-1.044,-33.569,-55.298,21.912
0.287,-0.050,-1.039,-33.325,-69.763,23.193
0.333,-0.013,-1.020,-38.452,-87.463,24.475
0.377,0.012,-1.002,-38.208,-104.919,23.682
0.472,0.039,-0.991,-35.339,-119.934,19.714
0.536,0.051,-0.963,-32.043,-137.573,14.465
0.595,0.078,-0.926,-26.245,-159.302,10.437
0.687,0.118,-0.865,-23.254,-181.824,6.775
0.786,0.129,-0.777,-21.118,-204.346,0.122
0.852,0.100,-0.676,-23.315,-223.389,-8.667
0.900,0.091,-0.578,-34.119,-234.863,-15.747
0.905,0.086,-0.492,-41.260,-236.023,-20.325
0.870,0.054,-0.422,-36.987,-226.501,-25.452
0.859,0.034,-0.365,-32.349,-209.900,-28.198
0.881,0.010,-0.339,-27.222,-192.749,-27.893
0.896,-0.025,-0.321,-21.729,-178.223,-26.367
0.891,-0.051,-0.302,-20.996,-165.405,-23.193
0.887,-0.065,-0.287,-22.095,-153.076,-18.494
0.874,-0.063,-0.289,-19.165,-139.404,-12.573
0.857,-0.039,-0.303,-12.756,-125.183,-6.653
0.859,0.010,-0.327,-5.920,-112.305,-2.136
0.865,0.070,-0.348,1.648,-104.004,-0.610
0.861,0.130,-0.352,8.850,-100.830,-1.160
0.871,0.166,-0.345,11.719,-101.257,-7.019
0.893,0.130,-0.328,12.329,-104.309,-19.836
0.931,0.048,-0.308,9.644,-110.352,-34.180
0.962,-0.067,-0.292,4.150,-117.737,-45.532
0.985,-0.189,-0.261,-2.991,-124.390,-51.270

1.400,0.125,1.135,-23.987,-40.588,14.221
1.499,0.244,1.597,-8.240,-43.152,23.254
1.569,0.141,2.080,21.118,-10.986,18.311
1.266,-0.072,2.602,42.908,80.811,1.343
0.611,-0.173,2.827,38.452,242.004,10.132
0.118,-0.269,2.533,44.312,454.590,29.480
-0.162,-0.342,1.857,70.923,679.382,40.588
-0.494,-0.298,1.050,88.562,877.441,47.424
-0.954,-0.196,0.174,106.140,1020.569,57.556
-0.931,-0.022,-1.032,132.324,1091.370,75.500
-0.943,0.374,-2.233,164.185,1048.157,107.849
-0.965,0.786,-2.925,196.533,866.333,127.441
-0.655,0.803,-3.122,180.054,620.361,106.384
-0.461,0.549,-2.843,81.421,356.689,68.542
-0.305,0.280,-2.211,-30.945,125.427,45.410
-0.168,0.083,-1.496,-70.679,-29.480,40.222
-0.009,0.054,-0.973,-71.716,-91.614,44.678
0.081,0.102,-0.705,-64.270,-85.815,50.476
0.181,0.127,-0.705,-50.293,-48.401,51.880
0.120,0.194,-0.828,-43.579,-11.475,50.781
0.075,0.202,-1.009,-36.682,15.320,42.847
0.064,0.182,-1.180,-28.259,23.376,34.058
0.046,0.198,-1.280,-27.527,9.521,26.611
0.030,0.230,-1.305,-26.917,-17.761,16.785
0.093,0.227,-1.268,-20.996,-53.040,2.686
0.207,0.173,-1.207,-14.526,-90.576,-12.939
0.289,0.111,-1.123,-13.977,-125.000,-27.527
0.296,0.035,-1.039,-16.479,-153.198,-37.292
0.375,0.016,-0.985,-17.944,-174.133,-39.246
0.510,0.013,-0.934,-15.869,-190.491,-37.720
0.615,-0.011,-0.884,-9.033,-205.383,-37.781
0.689,-0.056,-0.838,-10.376,-217.590,-37.109
0.743,-0.066,-0.779,-22.583,-226.990,-33.386
0.780,-0.044,-0.706,-33.691,-234.009,-29.602
0.778,-0.033,-0.616,-34.363,-237.366,-24.841
0.770,-0.002,-0.530,-28.564,-236.511,-16.479
0.781,0.047,-0.461,-24.231,-233.154,-7.202
0.800,0.096,-0.399,-20.264,-227.478,-0.793
0.818,0.130,-0.351,-13.428,-221.130,0.366
0.829,0.144,-0.312,-7.263,-213.013,-2.075
0.823,0.139,-0.280,-5.249,-201.416,-7.141
0.737,0.107,-0.222,-7.202,-187.744,-12.146
0.726,0.107,-0.191,-14.648,-173.462,-15.503
0.838,0.145,-0.214,-22.339,-156.921,-18.433
0.966,0.142,-0.265,-15.625,-140.442,-23.193
1.005,0.073,-0.297,-2.563,-130.188,-30.518
1.036,0.028,-0.334,2.319,-126.648,-36.987
0.947,-0.019,-0.320,3.601,-125.427,-39.124
0.904,-0.045,-0.285,7.019,-129.028,-35.828
0.929,-0.061,-0.245,6.165,-135.925,-30.334

1.181,0.113,0.598,32.715,63.660,14.526
1.204,0.187,0.697,29.175,86.304,10.864
1.158,0.211,0.852,38.147,122.864,3.662
1.150,0.167,0.958,56.213,167.542,-1.648
1.101,0.122,1.052,63.782,226.074,-3.662
1.023,0.086,1.086,58.960,293.274,-1.038
0.867,0.014,1.042,53.101,369.690,5.981
0.633,-0.011,0.883,46.692,454.407,15.198
0.495,0.024,0.579,45.227,533.325,23.071
0.403,0.043,0.196,48.401,594.299,26.001
0.364,0.053,-0.220,41.260,625.366,26.855
0.311,0.072,-0.597,24.475,619.629,26.062
0.229,0.076,-0.917,16.663,586.792,21.057
0.127,0.032,-1.180,16.602,535.828,17.761
0.054,0.018,-1.431,10.498,471.252,19.592
-0.033,0.008,-1.573,-0.366,398.193,24.536
-0.094,-0.022,-1.634,-8.545,323.608,29.602
-0.149,-0.054,-1.639,-23.560,257.568,35.095
-0.152,-0.061,-1.610,-38.879,201.050,40.344
-0.132,-0.061,-1.547,-45.166,148.132,43.457
-0.144,-0.052,-1.450,-48.828,100.952,42.664
-0.131,-0.056,-1.376,-48.401,64.636,37.720
-0.128,-0.105,-1.364,-44.556,38.940,30.029
-0.129,-0.139,-1.377,-45.837,18.188,22.339
-0.102,-0.173,-1.376,-44.373,-3.174,16.602
-0.068,-0.200,-1.331,-42.236,-29.358,14.343
-0.021,-0.204,-1.249,-42.358,-56.702,14.893
0.025,-0.209,-1.166,-39.734,-80.078,16.663
0.083,-0.202,-1.091,-36.255,-97.595,18.066
0.143,-0.172,-1.034,-30.945,-110.718,20.874
0.199,-0.147,-1.000,-22.522,-119.202,22.827
0.266,-0.122,-0.985,-12.817,-124.451,23.865
0.337,-0.103,-0.980,-3.601,-130.615,24.719
0.394,-0.081,-0.969,4.272,-139.221,25.452
0.430,-0.042,-0.955,13.611,-148.010,25.146
0.440,0.003,-0.948,24.658,-155.884,22.461
0.450,0.050,-0.960,37.598,-161.621,14.954
0.459,0.063,-0.970,50.781,-166.870,2.258
0.479,0.034,-0.972,55.664,-175.781,-11.597
0.518,0.009,-0.939,45.410,-188.416,-23.010
0.559,-0.025,-0.865,32.593,-205.444,-27.771
0.600,-0.054,-0.765,22.217,-224.609,-27.588
0.646,-0.062,-0.656,12.085,-241.455,-22.705
0.681,-0.052,-0.547,4.700,-252.563,-15.076
0.720,-0.026,-0.457,1.404,-256.653,-7.935
0.760,-0.002,-0.381,2.258,-255.066,-2.991
0.800,0.011,-0.323,4.456,-249.146,-0.732
0.833,0.025,-0.274,3.723,-237.976,0.061
0.861,0.045,-0.231,2.014,-222.656,-0.244
0.886,0.062,-0.197,4.578,-206.055,-1.343

1.203,0.058,0.892,-8.972,6.042,5.798
1.391,0.129,1.186,13.855,28.503,8.423
1.520,0.036,1.431,47.913,59.631,11.169
1.289,-0.036,1.737,57.312,125.427,10.864
0.941,-0.098,2.011,56.091,239.136,14.343
0.599,-0.174,2.023,83.069,395.020,32.532
0.212,-0.191,1.723,116.150,569.763,64.331
-0.057,-0.108,1.176,134.338,740.234,87.891
-0.395,0.026,0.407,144.714,877.808,97.046
-0.570,0.227,-0.603,149.780,952.271,97.900
-0.561,0.499,-1.605,146.851,950.073,95.337
-0.578,0.638,-2.392,150.024,844.177,78.979
-0.654,0.578,-2.814,135.925,656.555,53.162
-0.492,0.499,-2.824,69.336,431.396,35.767
-0.376,0.256,-2.369,-0.854,211.609,23.804
-0.213,0.062,-1.733,-46.997,45.593,19.836
-0.078,-0.015,-1.186,-59.875,-41.077,24.780
-0.026,-0.009,-0.906,-54.138,-58.838,31.799
-0.010,0.070,-0.883,-47.485,-37.781,38.391
0.008,0.125,-1.020,-33.020,-14.282,39.978
0.062,0.117,-1.168,-21.362,-8.179,35.950
0.005,0.102,-1.219,-24.719,-21.057,30.945
-0.013,0.103,-1.234,-31.982,-41.443,29.419
0.021,0.106,-1.240,-36.133,-66.162,28.870
0.040,0.116,-1.205,-40.894,-92.346,26.428
0.070,0.126,-1.155,-44.128,-117.249,23.315
0.112,0.143,-1.116,-42.603,-140.625,21.423
0.192,0.181,-1.076,-38.391,-162.476,18.921
0.231,0.205,-1.029,-33.020,-181.091,10.620
0.291,0.239,-0.982,-25.391,-195.862,-1.648
0.400,0.260,-0.940,-12.512,-208.557,-16.602
0.484,0.249,-0.891,1.221,-221.985,-33.691
0.530,0.219,-0.832,9.094,-234.497,-49.744
0.573,0.176,-0.774,10.681,-243.286,-62.927
0.610,0.120,-0.715,9.644,-250.610,-72.571
0.647,0.066,-0.644,6.531,-258.118,-76.965
0.674,0.026,-0.561,-1.404,-265.625,-75.317
0.707,0.009,-0.471,-17.151,-270.813,-69.397
0.764,0.002,-0.384,-35.217,-272.888,-60.852
0.820,-0.015,-0.302,-48.035,-272.583,-51.453
0.857,-0.032,-0.228,-58.838,-269.043,-41.504
0.885,-0.036,-0.159,-69.458,-260.498,-31.494
0.914,-0.038,-0.099,-72.449,-248.962,-24.170
0.940,-0.048,-0.047,-64.880,-235.107,-20.264
0.969,-0.060,0.000,-50.659,-220.947,-19.531
1.007,-0.072,0.045,-34.302,-206.665,-20.264
1.036,-0.087,0.088,-18.555,-191.650,-21.484
1.054,-0.107,0.119,-6.287,-175.598,-23.315
1.066,-0.126,0.137,0.122,-157.654,-24.170
1.069,-0.139,0.143,2.563,-138.611,-22.827

1.325,-0.049,0.816,-32.654,-28.015,16.846
1.497,-0.009,1.152,-36.133,-30.334,21.667
1.454,0.032,1.549,-22.095,-9.827,24.414
1.297,-0.033,1.907,8.789,52.368,24.780
0.892,-0.042,2.119,27.954,172.852,31.860
0.581,-0.057,2.024,33.081,336.060,38.086
0.381,-0.164,1.668,62.988,514.282,38.025
0.239,-0.198,1.152,90.332,673.645,42.969
-0.104,-0.132,0.578,109.436,802.551,57.190
-0.436,0.023,-0.184,139.343,880.737,77.148
-0.541,0.250,-1.065,164.246,911.865,95.459
-0.566,0.556,-1.915,176.086,864.868,108.826
-0.574,0.776,-2.499,171.997,726.746,98.511
-0.503,0.722,-2.719,129.150,533.875,66.467
-0.402,0.511,-2.585,38.147,324.158,31.128
-0.229,0.246,-2.098,-47.668,129.822,10.681
-0.114,0.047,-1.505,-83.984,-10.071,5.371
-0.002,-0.026,-1.075,-89.783,-72.021,8.423
0.048,-0.043,-0.880,-79.773,-73.669,12.878
0.102,-0.022,-0.882,-63.782,-48.889,16.418
0.156,-0.032,-0.973,-47.607,-26.428,16.479
0.105,-0.054,-1.055,-37.720,-17.090,14.038
0.091,-0.042,-1.160,-32.715,-17.822,14.404
0.101,-0.021,-1.234,-23.865,-30.579,14.526
0.107,0.015,-1.258,-16.907,-53.345,12.695
0.148,0.051,-1.250,-12.939,-81.055,8.667
0.226,0.064,-1.214,-9.888,-111.816,1.526
0.298,0.062,-1.148,-10.864,-142.639,-7.874
0.308,0.064,-1.062,-12.207,-170.532,-16.663
0.382,0.087,-0.995,-10.620,-193.604,-22.400
0.490,0.111,-0.922,-5.188,-212.280,-27.283
0.566,0.109,-0.832,1.160,-229.065,-34.729
0.636,0.074,-0.732,2.380,-242.004,-42.725
0.708,0.021,-0.642,-3.174,-250.977,-48.340
0.769,-0.026,-0.544,-15.076,-257.568,-48.401
0.827,-0.051,-0.447,-28.259,-262.573,-43.518
0.868,-0.061,-0.352,-34.607,-263.672,-36.438
0.862,-0.076,-0.262,-34.363,-258.362,-30.212
0.776,-0.107,-0.147,-36.194,-245.972,-26.123
0.882,-0.065,-0.129,-51.270,-225.952,-21.484
0.996,0.003,-0.141,-58.289,-196.228,-11.414
1.090,0.037,-0.172,-36.499,-167.175,-4.700
1.018,0.018,-0.152,-0.549,-148.010,-2.991
0.962,0.036,-0.127,19.470,-136.047,-2.136
0.949,0.095,-0.112,16.418,-123.962,-0.671
0.951,0.118,-0.102,10.620,-110.901,-0.977
0.975,0.117,-0.108,8.179,-99.854,-3.784
1.029,0.093,-0.130,7.751,-89.050,-9.583
1.067,0.038,-0.139,5.310,-80.261,-19.226
1.059,-0.081,-0.145,-4.333,-74.402,-30.334

1.571,0.162,1.019,-69.885,-57.739,27.710
1.616,0.131,1.383,-91.125,-57.800,34.424
1.218,-0.046,1.827,-85.083,5.798,14.282
0.846,-0.151,2.032,-88.806,142.029,3.906
0.626,-0.343,1.906,-77.393,313.049,7.874
0.278,-0.485,1.481,-41.443,503.540,12.329
-0.044,-0.413,0.866,-0.183,685.730,22.461
-0.377,-0.324,0.165,58.899,835.205,34.851
-0.506,-0.213,-0.772,117.981,930.481,56.458
-0.417,0.109,-1.810,150.757,932.739,96.741
-0.445,0.452,-2.660,185.181,807.129,120.850
-0.514,0.708,-2.857,188.232,576.721,114.136
-0.346,0.683,-2.568,114.319,347.900,72.571
-0.192,0.361,-2.143,18.616,164.246,22.461
-0.050,0.145,-1.648,-46.753,26.123,0.916
0.057,0.060,-1.155,-58.899,-58.960,2.441
0.115,0.062,-0.813,-49.683,-83.008,8.728
0.137,0.129,-0.679,-44.373,-60.608,12.878
0.106,0.160,-0.764,-31.494,-20.020,8.911
0.077,0.191,-0.958,-19.897,12.817,-0.916
0.114,0.165,-1.121,-14.343,25.696,-14.587
0.041,0.057,-1.226,-9.949,20.630,-32.043
0.037,0.026,-1.302,-14.771,2.136,-39.429
0.109,0.012,-1.332,-16.052,-29.236,-40.100
0.180,-0.026,-1.289,-13.123,-68.970,-42.786
0.261,-0.056,-1.203,-18.555,-106.262,-44.495
0.346,-0.068,-1.098,-25.635,-137.268,-43.945
0.414,-0.074,-1.007,-27.100,-161.865,-43.030
0.464,-0.075,-0.925,-26.062,-179.993,-41.016
0.537,-0.062,-0.858,-22.583,-192.688,-35.950
0.603,-0.046,-0.803,-18.250,-198.608,-32.104
0.641,-0.031,-0.756,-15.015,-197.754,-30.518
0.671,-0.019,-0.717,-12.207,-194.946,-29.907
0.689,-0.024,-0.684,-8.606,-192.688,-30.701
0.712,-0.037,-0.648,-7.690,-190.674,-31.677
0.758,-0.059,-0.606,-9.155,-191.162,-32.715
0.802,-0.076,-0.553,-12.329,-194.885,-31.433
0.841,-0.083,-0.487,-18.738,-199.890,-27.344
0.869,-0.080,-0.416,-24.353,-204.163,-21.729
0.887,-0.082,-0.352,-25.757,-205.078,-17.029
0.904,-0.089,-0.294,-24.353,-200.317,-12.817
0.921,-0.082,-0.249,-21.179,-190.735,-8.362
0.932,-0.073,-0.215,-15.564,-178.040,-5.615
0.939,-0.065,-0.192,-8.728,-163.208,-4.944
0.953,-0.049,-0.174,-2.686,-148.193,-5.371
0.964,-0.034,-0.161,4.150,-134.155,-6.775
0.965,-0.033,-0.160,11.169,-121.155,-9.155
0.982,-0.043,-0.169,13.489,-108.032,-12.695
0.999,-0.059,-0.179,11.841,-96.985,-15.808
1.001,-0.073,-0.181,9.338,-88.501,-18.005

1.348,-0.109,0.670,-46.509,-21.729,15.320
1.416,-0.079,0.953,-60.486,-2.686,15.320
1.360,-0.120,1.283,-43.457,38.818,17.029
1.188,-0.153,1.594,-17.334,116.699,24.902
1.071,-0.144,1.770,-12.756,227.234,36.438
0.755,-0.226,1.671,6.287,362.122,46.204
0.368,-0.302,1.206,39.246,513.062,56.396
0.050,-0.209,0.589,58.289,660.156,70.129
-0.213,-0.107,-0.194,84.045,774.597,82.703
-0.301,0.122,-1.026,110.107,827.698,99.731
-0.230,0.355,-1.888,138.794,789.734,110.168
-0.293,0.534,-2.397,159.241,648.499,103.699
-0.317,0.648,-2.403,122.742,465.820,75.745
-0.207,0.467,-2.204,48.401,296.875,33.508
-0.028,0.227,-1.919,-19.897,153.076,5.127
0.074,0.046,-1.433,-57.739,38.269,0.061
0.125,-0.014,-1.007,-59.448,-20.874,3.967
0.178,-0.017,-0.806,-52.307,-22.156,9.094
0.193,-0.010,-0.792,-45.105,3.723,11.597
0.149,-0.014,-0.947,-32.959,30.762,12.085
0.108,0.024,-1.126,-25.330,43.518,10.925
0.118,0.007,-1.272,-19.958,39.124,4.822
0.057,-0.060,-1.327,-18.188,20.691,-3.540
0.023,-0.064,-1.341,-21.667,-5.981,-6.104
0.071,-0.048,-1.356,-20.203,-38.025,-5.249
0.124,-0.067,-1.319,-15.198,-74.768,-8.057
0.190,-0.090,-1.235,-17.151,-108.337,-11.597
0.268,-0.102,-1.144,-25.085,-136.536,-13.428
0.317,-0.114,-1.052,-31.189,-160.339,-13.611
0.383,-0.124,-0.974,-32.593,-177.429,-12.695
0.482,-0.128,-0.918,-31.006,-189.270,-10.315
0.544,-0.127,-0.871,-28.198,-199.219,-6.104
0.581,-0.122,-0.821,-25.146,-207.031,-1.709
0.598,-0.097,-0.779,-19.958,-212.341,3.235
0.616,-0.057,-0.731,-11.353,-216.248,8.545
0.640,-0.007,-0.677,0.549,-219.543,10.986
0.663,0.039,-0.619,12.634,-222.534,10.193
0.697,0.045,-0.567,19.226,-223.389,5.798
0.737,0.046,-0.511,13.733,-221.924,0.366
0.775,0.048,-0.448,2.808,-220.032,-2.563
0.805,0.051,-0.380,-3.357,-218.018,-4.395
0.839,0.053,-0.316,-5.859,-214.539,-5.737
0.879,0.047,-0.260,-5.249,-209.106,-7.507
0.922,0.022,-0.205,-5.188,-200.989,-9.644
0.957,-0.023,-0.157,-7.690,-190.186,-10.742
0.983,-0.054,-0.115,-13.489,-176.392,-9.155
1.001,-0.068,-0.080,-15.808,-160.645,-3.967
1.006,-0.064,-0.055,-12.329,-143.677,2.258
1.022,-0.046,-0.045,-7.202,-125.671,9.521
1.023,-0.019,-0.050,-2.563,-107.605,15.137

1.373,0.093,0.863,-13.184,3.784,9.216
1.315,0.154,1.135,-3.052,32.288,3.662
1.265,0.027,1.316,29.419,86.975,-4.395
1.130,-0.115,1.454,52.124,171.875,-10.315
0.944,-0.152,1.485,46.082,279.968,-2.258
0.739,-0.242,1.355,66.650,398.071,9.583
0.736,-0.268,1.036,88.562,505.066,28.320
0.518,-0.252,0.691,87.585,588.989,52.612
0.297,-0.162,0.183,78.308,641.846,80.566
0.055,0.038,-0.375,66.528,672.729,104.492
-0.043,0.216,-1.014,75.256,678.711,109.985
-0.184,0.325,-1.627,86.609,640.869,104.858
-0.300,0.454,-2.073,78.369,554.260,93.811
-0.248,0.535,-2.258,60.059,428.284,77.332
-0.195,0.490,-2.101,30.457,286.743,52.246
-0.090,0.349,-1.766,-16.357,162.964,24.658
0.019,0.170,-1.418,-50.659,70.740,5.310
0.086,0.043,-1.148,-56.519,17.456,-1.770
0.119,-0.003,-1.002,-51.270,0.366,-1.465
0.123,-0.011,-0.998,-45.471,3.418,-1.038
0.194,-0.031,-1.095,-41.382,8.240,-2.014
0.110,-0.115,-1.123,-41.687,4.456,-4.639
0.060,-0.108,-1.144,-49.438,-3.723,-2.686
0.094,-0.087,-1.203,-46.570,-13.916,1.099
0.104,-0.127,-1.242,-35.278,-30.396,-0.427
0.184,-0.119,-1.240,-34.912,-52.795,3.174
0.275,-0.087,-1.198,-35.095,-79.773,8.606
0.321,-0.067,-1.122,-32.471,-106.323,8.972
0.362,-0.039,-1.041,-32.837,-128.296,6.836
0.483,-0.013,-0.966,-30.762,-146.118,3.723
0.558,-0.031,-0.868,-18.799,-163.025,0.488
0.611,-0.009,-0.775,-8.118,-174.133,1.709
0.664,0.025,-0.699,-8.179,-172.791,3.418
0.702,0.063,-0.642,-4.639,-164.917,1.709
0.733,0.094,-0.608,4.333,-154.907,-0.244
0.753,0.108,-0.592,12.451,-144.165,-1.160
0.778,0.115,-0.577,11.475,-135.071,-1.770
0.816,0.119,-0.555,4.761,-130.249,-3.296
0.841,0.118,-0.536,2.686,-129.456,-5.005
0.858,0.097,-0.517,2.808,-129.456,-6.836
0.860,0.074,-0.505,-0.183,-127.808,-8.667
0.858,0.059,-0.499,-4.517,-124.878,-10.132
0.843,0.040,-0.494,-5.554,-121.887,-11.292
0.839,0.036,-0.490,-3.052,-118.958,-12.207
0.842,0.021,-0.487,0.488,-117.188,-13.062
0.862,-0.002,-0.478,3.113,-116.516,-14.343
0.879,-0.022,-0.454,1.099,-116.943,-14.526
0.895,-0.011,-0.421,-4.883,-117.676,-12.451
0.899,0.015,-0.387,-9.460,-116.943,-10.315
0.901,0.036,-0.363,-7.507,-113.953,-10.498

1.198,-0.043,0.780,8.789,42.786,7.141
1.372,-0.119,1.023,37.781,76.599,11.536
1.464,-0.250,1.249,44.617,119.324,19.958
1.228,-0.279,1.441,21.423,192.017,34.546
0.905,-0.226,1.437,11.841,294.800,55.786
0.669,-0.157,1.206,39.917,417.236,75.623
0.464,-0.095,0.799,72.021,539.856,88.501
0.273,0.018,0.233,83.130,644.104,95.764
0.104,0.156,-0.499,84.778,703.125,97.656
-0.011,0.387,-1.250,93.201,701.050,100.525
-0.115,0.607,-1.838,110.962,628.906,91.431
-0.161,0.635,-2.152,107.727,507.385,61.768
-0.114,0.484,-2.226,55.359,362.427,29.053
-0.007,0.317,-1.990,-15.625,212.280,8.179
0.018,0.131,-1.531,-45.166,86.731,-0.366
0.116,0.037,-1.114,-49.255,16.357,-0.977
0.185,-0.018,-0.890,-45.471,2.625,-0.122
0.205,-0.047,-0.867,-36.499,18.372,1.038
0.196,-0.035,-0.996,-27.161,37.781,3.418
0.154,-0.023,-1.146,-19.958,42.114,4.700
0.173,-0.031,-1.259,-19.409,30.396,2.930
0.129,-0.091,-1.258,-23.987,7.141,2.075
0.082,-0.086,-1.256,-31.738,-16.846,4.517
0.134,-0.051,-1.279,-33.875,-42.419,9.766
0.193,-0.046,-1.246,-30.090,-72.449,10.803
0.214,-0.039,-1.184,-32.166,-99.731,9.094
0.280,-0.012,-1.125,-35.645,-123.169,8.911
0.345,-0.005,-1.062,-31.372,-144.653,6.287
0.405,0.004,-0.994,-25.818,-163.574,3.052
0.440,0.024,-0.924,-21.057,-178.894,-0.610
0.522,0.011,-0.873,-13.367,-190.491,-5.737
0.604,-0.005,-0.816,-8.423,-202.698,-9.216
0.653,-0.019,-0.743,-11.841,-215.210,-7.751
0.684,-0.011,-0.668,-18.372,-223.572,-4.272
0.722,0.013,-0.591,-20.569,-227.295,-0.244
0.752,0.043,-0.517,-16.785,-227.661,2.380
0.792,0.066,-0.452,-9.399,-226.562,2.441
0.841,0.055,-0.391,-2.563,-223.816,0.000
0.878,0.039,-0.332,-1.648,-218.994,-1.953
0.897,0.035,-0.274,-4.822,-210.876,-2.686
0.910,0.045,-0.224,-5.249,-200.500,-2.075
0.922,0.046,-0.191,-0.916,-187.439,-1.770
0.943,0.051,-0.172,2.014,-171.753,-2.197
0.969,0.061,-0.158,0.610,-155.945,-3.052
0.985,0.068,-0.144,0.793,-142.334,-5.737
0.988,0.066,-0.130,5.371,-130.249,-9.338
1.001,0.056,-0.124,11.169,-119.507,-12.878
1.010,0.023,-0.126,15.625,-108.887,-15.320
1.009,-0.000,-0.133,15.686,-99.060,-15.320
1.001,-0.014,-0.143,13.367,-89.905,-13.672

1.291,0.048,0.877,28.015,41.809,10.986
1.287,0.020,1.052,37.231,87.891,8.240
1.210,-0.018,1.224,37.964,156.128,7.629
1.146,-0.056,1.292,40.955,238.342,13.855
0.946,-0.090,1.276,52.368,337.891,23.315
0.796,-0.114,1.172,69.580,436.462,35.706
0.677,-0.159,0.875,81.238,524.536,51.514
0.438,-0.127,0.440,69.153,599.976,68.909
0.206,-0.005,-0.158,53.284,650.696,80.200
0.006,0.179,-0.829,57.983,671.143,86.853
-0.070,0.344,-1.436,77.698,643.066,86.426
-0.076,0.443,-1.833,85.327,559.265,72.632
-0.150,0.428,-1.940,63.965,444.641,49.805
-0.120,0.320,-1.881,15.808,328.674,30.273
-0.067,0.225,-1.717,-25.269,223.389,23.743
-0.014,0.183,-1.434,-43.640,134.888,25.696
0.006,0.171,-1.180,-48.523,80.261,23.010
0.020,0.129,-1.079,-48.523,62.805,12.817
0.036,0.039,-1.108,-43.701,61.218,1.709
0.019,-0.018,-1.203,-39.978,57.129,-3.418
0.016,-0.024,-1.293,-36.011,44.495,-4.089
-0.025,-0.050,-1.336,-31.555,25.085,-6.470
-0.024,-0.103,-1.372,-28.442,2.686,-9.399
-0.034,-0.122,-1.393,-25.146,-23.682,-9.583
-0.053,-0.119,-1.384,-23.499,-53.406,-7.812
-0.043,-0.109,-1.373,-22.034,-82.397,-7.996
0.020,-0.084,-1.347,-19.836,-109.558,-9.644
0.077,-0.054,-1.287,-13.367,-138.489,-12.085
0.146,-0.021,-1.203,-8.789,-167.542,-16.235
0.224,-0.012,-1.108,-4.272,-194.519,-23.376
0.276,-0.019,-1.008,0.793,-217.834,-31.921
0.337,-0.019,-0.921,4.700,-235.413,-39.917
0.433,-0.032,-0.844,9.460,-250.244,-45.471
0.515,-0.045,-0.750,11.658,-267.822,-46.143
0.583,-0.053,-0.643,5.859,-284.241,-43.396
0.651,-0.063,-0.543,-2.991,-294.250,-38.879
0.716,-0.079,-0.449,-12.085,-299.011,-32.532
0.778,-0.075,-0.357,-22.644,-298.889,-24.841
0.835,-0.054,-0.264,-31.494,-295.288,-17.029
0.887,-0.032,-0.173,-34.668,-288.269,-10.132
0.936,-0.031,-0.096,-33.936,-277.100,-5.066
0.976,-0.035,-0.033,-36.072,-260.803,-1.770
1.007,-0.023,0.019,-41.260,-240.051,0.610
1.035,-0.003,0.069,-41.260,-216.553,2.869
1.045,0.007,0.110,-31.677,-193.115,3.479
1.048,0.016,0.134,-19.409,-168.274,3.601
1.058,0.018,0.139,-11.047,-142.883,2.625
1.062,0.018,0.133,-8.545,-118.042,0.488
1.089,0.026,0.124,-7.812,-95.337,-0.122
1.096,0.047,0.115,-2.808,-77.148,0.061

1.307,-0.010,0.917,21.545,39.307,1.770
1.446,-0.155,1.208,33.508,72.876,3.296
1.358,-0.216,1.520,12.695,136.902,14.038
1.131,-0.340,1.732,-3.784,236.877,31.433
0.920,-0.505,1.672,3.784,361.938,50.354
0.639,-0.590,1.280,4.517,499.695,78.186
0.234,-0.543,0.625,6.897,632.751,105.652
-0.144,-0.374,-0.213,23.743,729.980,133.057
-0.251,-0.053,-1.174,49.377,770.813,158.875
-0.224,0.260,-2.032,80.444,721.375,172.302
-0.224,0.477,-2.457,91.980,573.914,162.354
-0.225,0.612,-2.349,65.674,387.756,131.104
-0.143,0.547,-1.995,24.597,227.539,86.243
-0.006,0.336,-1.608,-4.211,115.601,47.363
0.080,0.180,-1.218,-21.301,47.607,28.687
0.140,0.147,-0.931,-17.639,18.005,26.367
0.172,0.182,-0.823,-6.531,21.484,27.100
0.146,0.214,-0.905,-7.202,40.222,21.790
0.116,0.223,-1.088,-9.277,49.927,13.367
0.075,0.198,-1.231,-10.620,39.978,4.395
0.044,0.173,-1.299,-17.395,17.456,-4.028
0.071,0.102,-1.290,-20.996,-8.179,-13.977
0.059,0.030,-1.292,-20.813,-31.189,-23.010
0.087,0.031,-1.305,-20.630,-56.946,-23.315
0.133,0.024,-1.273,-14.893,-88.013,-22.705
0.184,0.009,-1.219,-13.000,-115.601,-24.597
0.261,0.009,-1.158,-15.259,-138.916,-26.001
0.330,0.000,-1.082,-11.536,-160.950,-27.466
0.370,-0.005,-0.977,-6.165,-181.335,-28.687
0.446,0.010,-0.877,-5.310,-198.425,-29.236
0.555,0.021,-0.783,-6.592,-213.257,-28.320
0.659,0.029,-0.679,-9.705,-229.919,-24.902
0.745,0.037,-0.566,-18.188,-242.981,-19.714
0.805,0.051,-0.470,-28.442,-246.521,-13.855
0.845,0.075,-0.392,-35.950,-240.417,-8.362
0.870,0.094,-0.338,-36.560,-226.440,-3.845
0.886,0.113,-0.304,-31.189,-206.970,-1.404
0.898,0.134,-0.284,-23.621,-184.570,-1.221
0.910,0.135,-0.271,-11.719,-162.109,-3.540
0.913,0.125,-0.255,1.160,-141.541,-8.240
0.946,0.133,-0.234,8.728,-126.831,-11.902
0.985,0.137,-0.221,12.207,-117.554,-14.099
1.011,0.127,-0.212,11.536,-109.924,-16.846
1.021,0.103,-0.203,6.470,-102.051,-20.508
1.014,0.082,-0.200,0.610,-91.980,-23.743
1.008,0.058,-0.210,-1.404,-80.078,-25.269
1.002,0.029,-0.238,0.916,-67.688,-25.757
0.982,0.008,-0.278,4.822,-56.824,-25.513
0.957,-0.005,-0.330,8.057,-49.377,-24.475
0.942,-0.018,-0.380,10.376,-45.105,-24.048

1.296,-0.101,0.799,-18.127,-2.625,7.202
1.447,-0.069,1.106,-50.354,5.798,19.531
1.359,0.055,1.390,-74.951,48.523,27.588
1.061,0.048,1.491,-43.823,136.169,18.127
0.789,-0.004,1.368,17.456,262.573,4.578
0.619,-0.072,1.109,75.684,401.245,2.808
0.561,-0.128,0.746,115.479,518.799,15.625
0.456,-0.087,0.356,123.413,600.830,34.302
0.325,-0.031,-0.029,122.253,636.658,48.523
0.178,0.060,-0.356,115.601,636.230,64.270
0.174,0.174,-0.674,94.482,603.516,81.543
0.216,0.290,-0.894,70.007,550.903,83.252
0.171,0.245,-1.064,51.086,500.977,62.622
0.044,0.185,-1.242,27.832,453.308,46.631
-0.086,0.163,-1.458,6.836,409.729,42.847
-0.171,0.137,-1.687,-4.028,361.572,44.617
-0.216,0.153,-1.861,-19.775,298.462,48.096
-0.173,0.181,-1.865,-36.743,217.102,47.546
-0.143,0.167,-1.699,-43.213,130.005,37.720
-0.119,0.136,-1.510,-49.500,60.303,23.010
-0.132,0.062,-1.394,-47.607,19.043,6.104
-0.111,-0.010,-1.351,-37.476,-2.380,-8.789
0.004,-0.085,-1.274,-29.114,-22.705,-21.118
0.130,-0.159,-1.137,-25.940,-51.270,-27.161
0.191,-0.210,-1.017,-28.259,-75.684,-25.269
0.232,-0.227,-0.980,-34.790,-86.975,-15.869
0.274,-0.231,-0.996,-40.283,-90.576,-4.639
0.318,-0.221,-1.009,-43.579,-95.093,6.165
0.344,-0.196,-0.994,-44.983,-102.295,16.479
0.373,-0.159,-0.974,-43.518,-109.741,24.841
0.424,-0.109,-0.963,-39.490,-116.333,31.372
0.483,-0.088,-0.959,-29.480,-122.253,34.729
0.516,-0.064,-0.968,-13.672,-129.272,36.011
0.532,-0.023,-0.995,-0.122,-136.230,36.316
0.526,0.030,-1.013,12.573,-142.822,31.189
0.509,0.077,-1.012,31.189,-153.320,20.264
0.509,0.115,-0.987,51.941,-169.128,4.517
0.537,0.116,-0.931,65.491,-189.270,-14.038
0.578,0.082,-0.836,66.162,-212.646,-32.654
0.622,0.022,-0.727,55.542,-236.084,-45.349
0.659,-0.045,-0.614,37.964,-255.005,-49.377
0.699,-0.075,-0.497,16.418,-267.639,-45.105
0.738,-0.069,-0.388,0.916,-273.804,-35.706
0.773,-0.042,-0.287,-2.136,-273.865,-25.513
0.814,-0.008,-0.203,0.732,-267.456,-16.724
0.865,0.029,-0.127,3.784,-256.287,-10.803
0.913,0.061,-0.067,4.333,-242.065,-8.606
0.948,0.081,-0.026,3.357,-224.731,-9.949
0.969,0.093,0.003,1.038,-203.613,-14.038
0.995,0.089,0.016,1.892,-180.481,-19.409

