aX,aY,aZ,gX,gY,gZ
0.251,0.063,0.827,-265.198,-82.825,-111.755
0.284,0.052,0.931,-83.740,-24.292,-33.081
0.286,0.052,0.927,-13.367,-0.854,-3.967
0.286,0.054,0.915,-2.014,3.052,0.549
0.283,0.061,0.909,0.244,3.357,2.197
0.286,0.068,0.909,0.793,2.563,3.174
0.285,0.079,0.912,0.854,1.770,3.723
0.284,0.093,0.913,0.610,1.709,4.333
0.288,0.107,0.914,0.488,1.648,4.089
0.290,0.112,0.915,0.916,1.587,3.479
0.290,0.113,0.917,0.549,1.526,2.258
0.288,0.111,0.918,0.061,1.709,1.282
0.289,0.107,0.916,0.122,1.953,0.305
0.286,0.104,0.916,0.061,1.770,-0.183
0.282,0.097,0.919,0.122,1.282,-0.244
0.278,0.093,0.922,0.366,1.099,-0.427
0.278,0.082,0.924,0.427,0.916,-0.366
0.281,0.076,0.934,-0.427,0.427,-0.244
0.281,0.086,0.944,-0.977,0.244,0.610
0.282,0.101,0.938,0.916,1.282,1.831
0.283,0.107,0.928,1.038,2.625,1.465
0.280,0.097,0.919,-0.122,2.686,-0.244
0.281,0.086,0.924,-1.465,1.709,-0.977
0.279,0.074,0.933,-1.709,0.732,-1.160
0.280,0.065,0.936,-1.465,0.854,-1.160
0.279,0.057,0.933,-0.854,1.709,-1.038
0.281,0.053,0.932,-0.244,2.014,-0.549
0.281,0.055,0.933,0.549,1.709,0.549
0.279,0.067,0.935,0.488,1.404,1.831
0.281,0.079,0.938,0.427,1.648,2.563
0.280,0.086,0.942,0.183,1.587,2.502
0.280,0.090,0.945,0.000,1.892,1.953
0.280,0.087,0.940,-0.061,2.686,1.221
0.281,0.083,0.930,-0.183,3.540,0.732
0.280,0.081,0.920,-0.122,3.906,0.793
0.280,0.084,0.917,0.122,3.540,1.221
0.280,0.087,0.915,0.366,2.747,1.648
0.282,0.089,0.917,0.610,2.380,1.587
0.282,0.091,0.924,0.793,1.465,1.648
0.286,0.092,0.933,0.793,1.282,1.526
0.286,0.089,0.934,0.305,1.709,1.465
0.284,0.089,0.927,-0.244,2.747,1.160
0.285,0.092,0.918,-0.183,3.479,0.977
0.283,0.094,0.919,0.366,2.930,1.404
0.283,0.094,0.923,0.732,1.953,1.465
0.285,0.093,0.928,0.549,1.831,1.099
0.284,0.092,0.930,0.549,2.258,0.854
0.283,0.094,0.926,0.305,2.808,0.916
0.284,0.094,0.921,0.183,2.869,0.549
0.286,0.094,0.924,0.366,2.380,0.427

0.710,0.521,0.588,85.144,203.613,35.339
0.712,0.566,0.589,79.102,200.439,16.479
0.688,0.580,0.566,74.707,203.857,-4.211
0.693,0.604,0.489,69.824,210.937,-25.146
0.711,0.628,0.393,66.223,211.487,-46.814
0.699,0.641,0.327,62.012,200.867,-70.801
0.676,0.673,0.300,50.720,187.744,-96.802
0.656,0.703,0.281,37.048,175.354,-122.925
0.618,0.766,0.282,25.269,166.321,-152.954
0.580,0.849,0.267,18.616,157.593,-185.181
0.470,0.909,0.251,13.794,149.048,-218.506
0.352,0.949,0.160,13.428,147.705,-259.949
0.226,0.877,0.054,13.550,144.653,-309.326
0.097,0.701,-0.050,6.714,130.737,-362.000
0.006,0.352,-0.003,-1.831,101.318,-412.170
0.013,-0.057,0.175,-14.587,67.932,-445.190
0.067,-0.495,0.366,-22.400,48.767,-463.806
0.115,-0.860,0.479,-13.062,56.763,-477.722
0.154,-1.222,0.422,4.639,86.731,-491.028
0.165,-1.686,0.279,8.606,121.277,-471.680
0.244,-1.967,0.117,-1.099,142.639,-410.889
0.373,-2.225,-0.070,11.353,148.926,-343.445
0.461,-2.405,-0.177,21.545,136.169,-272.827
0.520,-2.521,-0.173,25.635,109.680,-201.721
0.560,-2.502,-0.091,30.884,81.238,-126.465
0.582,-2.337,0.037,37.048,60.425,-51.453
0.616,-2.189,0.161,38.818,51.270,10.620
0.568,-2.060,0.270,36.438,54.260,59.387
0.491,-1.855,0.265,39.001,68.176,104.858
0.421,-1.615,0.136,47.607,85.754,144.043
0.349,-1.400,-0.020,53.467,93.262,172.363
0.315,-1.218,-0.137,54.504,84.351,190.002
0.341,-1.006,-0.147,52.551,60.730,204.529
0.363,-0.824,-0.088,57.068,33.386,212.463
0.399,-0.645,-0.019,58.350,14.526,211.609
0.435,-0.518,0.012,58.228,4.883,203.979
0.497,-0.403,0.008,51.086,1.343,191.895
0.573,-0.319,0.008,42.053,-0.916,176.392
0.618,-0.333,-0.000,41.992,-2.808,155.518
0.665,-0.404,-0.020,33.508,-2.869,136.169
0.697,-0.498,-0.040,21.118,-2.991,123.901
0.737,-0.561,-0.038,14.038,-4.944,119.873
0.760,-0.569,-0.014,13.733,-8.057,122.620
0.807,-0.534,0.005,16.235,-10.803,127.502
0.829,-0.483,0.023,16.724,-11.475,131.348
0.844,-0.470,0.022,16.602,-9.705,132.568
0.841,-0.467,0.002,13.306,-6.958,132.874
0.842,-0.436,-0.025,7.935,-5.066,135.620
0.770,-0.397,-0.045,4.211,-6.714,140.198
0.900,-0.384,-0.079,0.183,-9.827,143.982

0.813,0.885,0.164,38.025,1.221,-51.453
0.774,1.074,0.130,50.476,1.343,-89.417
0.703,1.251,0.020,55.359,2.625,-145.325
0.536,1.423,-0.103,28.992,0.000,-218.933
0.298,1.337,-0.226,3.540,-8.911,-310.242
0.115,1.001,-0.260,-12.695,-27.771,-397.827
-0.032,0.550,-0.086,-18.372,-59.204,-462.769
-0.128,0.157,0.231,-4.578,-87.341,-495.972
-0.127,-0.196,0.488,25.452,-82.825,-512.085
-0.110,-0.513,0.517,54.504,-42.419,-522.278
-0.074,-0.840,0.354,66.162,7.385,-533.264
-0.003,-1.208,0.136,67.200,39.307,-549.438
0.071,-1.681,-0.004,57.556,43.030,-541.626
0.222,-2.221,-0.062,40.344,28.625,-483.704
0.419,-2.706,-0.096,37.903,12.329,-409.546
0.574,-3.072,-0.099,38.147,-1.282,-335.144
0.690,-3.156,-0.024,39.612,-17.883,-237.915
0.751,-3.006,0.103,68.115,-32.837,-125.183
0.796,-2.675,0.280,91.492,-41.077,-22.766
0.795,-2.306,0.436,90.393,-36.682,58.472
0.753,-1.986,0.515,81.909,-18.860,118.103
0.667,-1.755,0.500,78.308,4.578,161.499
0.582,-1.510,0.426,72.571,27.771,200.073
0.507,-1.259,0.345,65.735,44.128,232.605
0.442,-1.049,0.259,57.495,52.917,255.249
0.409,-0.813,0.170,42.725,56.458,274.658
0.372,-0.571,0.084,26.062,54.810,288.513
0.386,-0.349,-0.008,15.991,48.645,292.664
0.442,-0.164,-0.092,8.179,38.086,287.903
0.504,-0.036,-0.142,0.061,23.132,275.452
0.565,0.048,-0.136,-11.963,6.470,258.545
0.639,0.114,-0.101,-22.522,-6.531,238.586
0.706,0.142,-0.061,-24.902,-14.709,212.708
0.761,0.127,-0.028,-24.231,-17.395,181.458
0.796,0.080,-0.001,-22.400,-15.259,147.766
0.845,-0.011,0.014,-18.677,-12.146,117.310
0.873,-0.139,0.036,-17.700,-9.338,94.238
0.872,-0.236,0.055,-19.104,-4.639,80.139
0.876,-0.280,0.047,-20.142,2.319,75.256
0.889,-0.292,0.022,-19.287,9.033,74.158
0.903,-0.282,0.002,-18.188,12.329,74.341
0.917,-0.285,-0.018,-17.578,12.817,74.036
0.928,-0.287,-0.028,-21.545,11.597,74.524
0.944,-0.292,-0.036,-27.039,8.667,75.562
0.947,-0.298,-0.033,-28.931,3.784,77.209
0.941,-0.294,-0.032,-29.053,-0.977,79.407
0.943,-0.262,-0.018,-29.114,-5.432,82.153
0.955,-0.239,-0.002,-23.560,-9.094,83.618
0.944,-0.218,0.014,-18.494,-11.841,83.435
0.952,-0.186,0.032,-17.090,-13.550,82.031

1.021,0.691,0.390,25.513,-31.311,40.344
1.010,0.913,0.510,55.725,-29.907,36.804
0.889,1.183,0.703,91.248,-20.325,11.902
0.958,1.562,0.880,140.320,5.859,-31.250
0.712,1.894,0.937,153.381,64.575,-98.328
0.372,1.798,0.759,79.468,150.696,-222.351
0.316,1.311,0.308,14.038,229.797,-346.436
0.161,0.841,-0.072,-15.076,253.601,-413.879
0.027,0.429,-0.329,-29.480,232.056,-453.186
-0.032,0.060,-0.443,-55.054,185.303,-470.093
-0.022,-0.329,-0.429,-79.346,132.324,-477.234
-0.019,-0.646,-0.313,-105.347,82.336,-483.154
0.047,-0.953,-0.175,-124.695,47.302,-484.619
0.176,-1.268,-0.059,-118.652,23.682,-462.219
0.331,-1.567,0.013,-99.731,11.047,-414.551
0.489,-1.769,0.046,-81.909,8.118,-352.478
0.629,-1.909,0.019,-56.030,10.254,-292.297
0.740,-2.026,-0.026,-28.198,12.512,-241.211
0.795,-2.126,-0.036,-11.292,10.925,-193.909
0.797,-2.219,-0.000,0.916,6.287,-144.043
0.805,-2.227,0.083,8.240,2.869,-85.022
0.795,-2.124,0.165,9.033,4.456,-17.822
0.750,-1.938,0.194,4.761,13.306,44.800
0.698,-1.788,0.154,0.610,25.818,94.910
0.627,-1.621,0.095,-8.423,36.316,137.329
0.575,-1.431,0.031,-17.151,40.588,175.049
0.533,-1.200,-0.017,-19.531,39.063,205.811
0.505,-0.964,-0.055,-15.381,32.471,226.440
0.521,-0.735,-0.084,-8.240,22.705,235.718
0.552,-0.541,-0.098,-0.061,10.681,234.558
0.593,-0.369,-0.081,7.446,-2.686,226.562
0.646,-0.210,-0.039,13.855,-15.503,213.379
0.696,-0.113,0.007,22.278,-25.330,193.726
0.755,-0.099,0.035,28.442,-29.175,167.542
0.804,-0.126,0.047,24.963,-28.015,142.273
0.816,-0.172,0.068,17.517,-24.170,122.864
0.839,-0.216,0.056,12.451,-18.372,109.009
0.865,-0.266,0.044,12.146,-13.306,99.487
0.882,-0.295,0.034,10.010,-10.620,95.398
0.890,-0.290,0.027,5.493,-9.705,94.116
0.888,-0.273,0.021,3.174,-9.705,93.323
0.909,-0.267,0.007,4.517,-10.376,88.928
0.920,-0.244,0.017,5.005,-11.230,87.463
0.904,-0.216,0.027,2.136,-10.620,86.670
1.005,-0.231,-0.013,0.854,-9.460,83.191
0.943,-0.158,0.054,-8.118,-11.169,83.313
0.938,-0.111,0.078,-7.019,-9.460,80.933
0.952,-0.137,0.073,4.944,-4.028,70.313
0.957,-0.121,0.048,2.380,2.869,61.768
0.956,-0.158,0.016,0.488,6.226,54.443

0.569,1.888,-0.122,189.392,50.781,-57.251
0.421,1.934,-0.143,228.271,56.152,-178.894
0.194,1.728,-0.056,150.330,56.396,-299.805
-0.026,1.162,0.044,37.964,51.025,-408.630
-0.084,0.350,0.069,-4.517,44.067,-486.694
-0.083,-0.256,0.141,-41.809,37.659,-515.930
-0.020,-0.549,0.192,-74.219,33.020,-526.245
0.107,-0.969,0.213,-82.520,29.480,-539.246
0.193,-1.275,0.295,-100.403,25.146,-524.292
0.293,-1.610,0.295,-106.628,28.198,-474.548
0.431,-1.891,0.213,-94.177,35.889,-410.034
0.522,-2.046,0.118,-79.834,40.405,-345.215
0.611,-2.219,0.018,-60.730,38.635,-288.696
0.665,-2.392,-0.035,-46.875,30.823,-237.976
0.645,-2.598,-0.045,-33.813,19.165,-186.157
0.625,-2.683,-0.013,-20.752,9.216,-120.544
0.598,-2.538,0.033,-1.465,1.221,-39.917
0.574,-2.232,0.070,22.583,-3.174,37.476
0.517,-1.935,0.106,31.616,-5.066,95.276
0.464,-1.642,0.122,25.574,-4.578,135.254
0.410,-1.378,0.123,21.362,-4.639,164.673
0.399,-1.164,0.108,19.348,-6.836,185.547
0.385,-0.980,0.096,9.521,-9.583,198.303
0.392,-0.797,0.083,-1.709,-13.794,207.092
0.402,-0.643,0.069,-4.822,-19.226,209.045
0.495,-0.506,0.053,-4.333,-26.245,205.933
0.551,-0.393,0.073,-4.150,-34.851,197.205
0.618,-0.308,0.104,-4.456,-41.565,181.824
0.673,-0.277,0.131,-3.540,-43.152,161.621
0.721,-0.279,0.147,-2.747,-40.161,139.526
0.771,-0.312,0.153,-4.089,-33.875,119.995
0.792,-0.358,0.158,-7.385,-26.733,103.638
0.813,-0.408,0.157,-9.277,-19.958,91.614
0.822,-0.451,0.152,-9.216,-14.465,84.595
0.863,-0.479,0.153,-9.705,-9.949,81.421
0.878,-0.485,0.163,-11.658,-6.958,81.360
0.881,-0.487,0.178,-11.780,-4.761,82.275
0.866,-0.478,0.181,-10.498,-2.075,83.374
0.912,-0.459,0.158,-8.911,0.671,84.229
0.897,-0.444,0.172,-5.615,2.625,85.815
0.883,-0.399,0.172,-9.827,6.226,88.623
0.885,-0.357,0.157,-11.963,10.986,90.210
0.924,-0.345,0.094,-12.024,13.550,89.417
0.919,-0.312,0.130,-12.329,10.559,90.088
0.881,-0.281,0.151,-11.719,10.315,90.332
0.908,-0.263,0.131,-12.146,15.930,85.815
0.910,-0.266,0.105,-8.911,20.142,79.285
0.907,-0.278,0.081,-9.033,21.057,72.876
0.921,-0.274,0.072,-12.024,20.264,68.359
0.921,-0.277,0.077,-9.949,18.188,65.491

0.846,0.958,0.454,96.497,16.296,41.321
0.773,1.685,0.565,184.448,40.344,24.170
0.974,2.580,0.762,327.209,72.021,-61.218
0.459,3.054,1.067,395.325,129.700,-206.482
-0.133,3.248,0.968,283.081,228.088,-368.408
-0.445,2.351,0.378,197.815,317.139,-554.810
-0.887,1.172,-0.139,128.357,344.177,-671.509
-1.169,0.322,-0.408,8.972,318.542,-695.679
-1.168,-0.459,-0.507,-105.713,269.104,-677.368
-0.988,-0.961,-0.460,-193.726,206.909,-677.856
-0.780,-1.552,-0.318,-242.920,148.132,-698.730
-0.557,-2.519,-0.138,-275.879,102.539,-619.019
-0.097,-2.788,-0.037,-279.480,73.608,-468.018
0.304,-3.045,-0.173,-187.805,70.068,-356.201
0.492,-3.212,-0.368,-104.370,74.646,-269.592
0.557,-3.165,-0.452,-76.233,67.627,-178.833
0.538,-2.996,-0.415,-48.157,47.546,-88.745
0.495,-2.598,-0.295,-30.334,29.541,-2.625
0.460,-2.216,-0.214,-20.386,20.569,63.110
0.401,-1.879,-0.126,-23.621,14.038,106.689
0.365,-1.620,-0.044,-28.503,10.193,134.644
0.343,-1.444,0.019,-29.236,11.414,151.367
0.317,-1.306,0.040,-33.508,17.944,161.316
0.311,-1.199,0.027,-37.964,25.574,168.945
0.303,-1.093,0.002,-36.804,30.640,173.279
0.307,-1.007,-0.025,-27.710,31.555,171.936
0.323,-0.952,-0.050,-12.390,28.320,166.443
0.342,-0.915,-0.054,-1.160,22.522,161.133
0.353,-0.867,-0.053,5.371,16.846,157.166
0.398,-0.805,-0.068,9.949,13.794,154.785
0.463,-0.746,-0.099,13.123,12.390,152.954
0.511,-0.703,-0.133,11.108,10.681,150.208
0.557,-0.668,-0.158,1.709,8.728,145.996
0.617,-0.672,-0.171,-6.226,5.920,140.503
0.660,-0.705,-0.165,-10.620,1.282,134.216
0.724,-0.696,-0.147,-12.756,-2.258,129.028
0.690,-0.720,-0.150,-4.639,-7.446,119.873
0.743,-0.733,-0.160,1.465,-15.198,113.098
0.784,-0.718,-0.086,0.000,-23.193,113.708
0.761,-0.703,-0.024,4.700,-27.344,117.737
0.783,-0.685,-0.006,10.986,-27.039,120.605
0.761,-0.609,-0.029,10.193,-21.423,122.864
0.742,-0.573,-0.062,13.733,-16.418,123.413
0.732,-0.541,-0.064,14.954,-12.695,130.005
0.763,-0.468,-0.079,12.146,-8.362,141.785
0.783,-0.396,-0.103,10.681,-5.676,147.217
0.794,-0.365,-0.117,8.850,-6.958,145.386
0.806,-0.331,-0.112,1.404,-10.437,143.372
0.833,-0.291,-0.107,-5.676,-13.611,141.968
0.841,-0.245,-0.082,-7.019,-17.761,139.526

0.939,0.676,0.398,68.237,-56.030,-24.719
0.865,0.872,0.439,89.783,-24.902,-61.340
0.699,1.047,0.415,102.112,20.752,-113.708
0.578,1.089,0.278,98.022,70.190,-172.119
0.402,1.026,0.044,59.143,103.699,-245.361
0.287,0.760,-0.198,5.005,100.586,-330.566
0.116,0.347,-0.137,-46.265,57.922,-393.433
0.062,0.017,0.027,-82.764,14.099,-417.664
0.042,-0.219,0.203,-98.206,-12.390,-419.189
0.049,-0.380,0.372,-109.436,-20.447,-413.879
0.090,-0.564,0.463,-111.572,-11.841,-410.645
0.146,-0.766,0.468,-105.042,5.920,-414.978
0.164,-1.034,0.390,-99.243,28.137,-425.171
0.220,-1.374,0.313,-109.741,50.476,-425.293
0.258,-1.829,0.224,-105.347,65.613,-423.340
0.323,-2.494,0.137,-76.660,72.571,-407.471
0.449,-3.044,0.022,-46.997,72.510,-369.446
0.415,-3.394,-0.022,-17.944,57.373,-311.890
0.376,-3.527,0.020,3.967,36.072,-208.984
0.380,-3.270,0.076,16.052,25.757,-61.035
0.388,-2.619,0.150,32.104,20.325,80.994
0.354,-2.036,0.239,35.583,19.165,162.720
0.305,-1.662,0.304,30.884,23.987,196.655
0.277,-1.406,0.310,26.978,33.386,212.708
0.254,-1.191,0.277,27.527,44.006,224.976
0.226,-0.996,0.228,29.724,52.795,234.863
0.230,-0.834,0.157,31.006,58.960,241.150
0.235,-0.680,0.100,26.306,60.181,243.225
0.266,-0.526,0.049,19.897,57.434,240.112
0.331,-0.390,-0.008,15.259,52.734,232.056
0.409,-0.289,-0.067,12.817,45.044,218.079
0.476,-0.224,-0.094,11.108,33.264,197.327
0.567,-0.183,-0.097,9.094,21.179,173.645
0.653,-0.191,-0.089,10.864,10.254,147.034
0.667,-0.272,-0.055,12.939,2.136,119.507
0.790,-0.398,-0.061,11.719,-1.282,96.680
0.812,-0.513,-0.013,11.658,-4.333,83.130
0.809,-0.560,0.021,15.015,-6.226,80.505
0.838,-0.590,0.029,24.536,-4.578,80.322
0.853,-0.579,0.014,26.611,-1.831,81.238
0.843,-0.584,-0.007,27.893,-3.113,78.735
0.850,-0.589,0.033,29.602,-7.324,79.041
0.867,-0.603,0.073,31.555,-8.850,85.632
0.873,-0.585,0.098,28.015,-7.324,93.018
0.863,-0.535,0.107,22.583,-1.526,100.220
0.865,-0.469,0.081,17.395,6.531,107.971
0.882,-0.424,0.029,14.282,13.550,112.671
0.864,-0.394,0.011,9.521,15.930,113.525
0.867,-0.346,-0.015,5.371,16.113,113.831
0.882,-0.315,-0.031,4.578,14.160,114.685

0.924,0.818,0.240,99.365,-1.221,-43.579
0.796,0.941,0.294,112.244,12.024,-92.834
0.692,1.004,0.243,108.643,40.833,-163.208
0.540,0.892,0.042,75.562,67.749,-247.681
0.425,0.518,-0.093,33.875,69.885,-323.242
0.237,0.222,-0.071,-10.559,49.438,-361.267
0.172,0.102,-0.044,-37.415,27.710,-374.268
0.108,0.005,0.003,-43.213,9.399,-377.136
0.071,-0.090,0.074,-56.580,0.244,-383.301
0.061,-0.261,0.144,-68.298,-1.526,-393.616
0.095,-0.480,0.195,-75.684,0.427,-405.823
0.110,-0.713,0.244,-80.383,7.568,-426.208
0.178,-1.065,0.204,-72.693,23.437,-454.651
0.229,-1.549,0.089,-57.190,38.635,-477.417
0.261,-2.182,-0.030,-50.354,43.579,-466.736
0.363,-2.683,-0.104,-47.913,33.081,-401.550
0.477,-3.015,-0.126,-24.109,10.193,-328.064
0.489,-3.264,-0.049,7.874,-19.043,-245.178
0.494,-3.128,0.140,16.235,-42.053,-125.000
0.515,-2.632,0.292,26.733,-48.096,5.310
0.508,-2.129,0.368,30.457,-37.476,92.407
0.484,-1.789,0.399,19.531,-21.118,136.963
0.461,-1.573,0.415,12.085,-5.859,160.828
0.418,-1.384,0.423,10.803,6.958,180.847
0.401,-1.199,0.398,11.963,20.630,199.463
0.382,-1.030,0.360,11.597,32.715,211.914
0.373,-0.868,0.307,9.644,42.664,218.628
0.385,-0.739,0.243,9.766,48.645,219.910
0.411,-0.622,0.185,9.216,50.537,216.125
0.431,-0.526,0.124,8.301,49.377,207.764
0.468,-0.442,0.064,6.470,46.692,197.510
0.520,-0.383,0.009,2.502,42.786,185.791
0.574,-0.366,-0.026,-0.122,36.499,170.044
0.630,-0.374,-0.040,-2.014,29.785,151.917
0.675,-0.400,-0.041,-3.052,23.804,135.071
0.711,-0.435,-0.036,-3.052,18.982,120.056
0.741,-0.477,-0.023,-1.343,15.625,106.567
0.760,-0.509,-0.011,3.052,13.000,96.680
0.779,-0.530,-0.002,9.277,10.315,91.064
0.760,-0.520,0.000,14.526,8.240,89.111
0.824,-0.531,-0.013,17.395,6.226,88.135
0.827,-0.480,0.024,14.099,1.709,90.149
0.821,-0.477,0.041,20.996,0.000,89.661
0.833,-0.438,0.051,20.325,2.502,88.684
0.842,-0.425,0.013,18.433,6.409,82.947
0.824,-0.467,-0.001,18.616,6.470,77.515
0.850,-0.429,0.001,12.573,5.981,83.496
0.861,-0.366,0.011,7.935,5.615,90.393
0.880,-0.350,0.001,11.169,5.432,87.097
0.889,-0.354,-0.003,10.864,5.005,81.543

0.955,1.115,0.427,-67.871,-83.008,-120.850
0.800,0.968,0.420,-80.811,-50.476,-220.459
0.646,0.593,0.360,-79.407,-15.747,-307.434
0.518,0.282,0.319,-54.382,1.099,-348.877
0.496,0.053,0.314,-15.564,7.629,-367.065
0.399,-0.170,0.284,9.460,17.151,-376.709
0.332,-0.369,0.207,10.864,29.419,-385.193
0.289,-0.568,0.154,-3.418,31.982,-393.799
0.293,-0.863,0.084,-17.883,27.405,-397.278
0.268,-1.187,0.029,-35.706,17.761,-390.625
0.283,-1.520,-0.000,-47.058,5.615,-374.146
0.312,-1.877,-0.024,-46.692,-5.676,-336.243
0.369,-2.103,-0.018,-45.715,-18.250,-269.104
0.456,-2.167,0.041,-37.109,-32.837,-194.519
0.503,-2.078,0.143,-21.362,-43.274,-124.817
0.526,-1.887,0.238,-9.521,-43.640,-64.941
0.571,-1.667,0.306,-3.540,-35.522,-20.386
0.587,-1.476,0.365,2.380,-27.405,7.935
0.628,-1.331,0.403,11.780,-17.700,26.123
0.648,-1.255,0.402,19.287,-4.578,39.124
0.616,-1.233,0.364,26.001,7.690,51.697
0.575,-1.209,0.328,28.625,15.076,67.139
0.552,-1.149,0.314,26.184,19.226,85.999
0.578,-1.096,0.281,24.109,23.987,103.577
0.577,-1.050,0.255,19.714,28.198,117.065
0.554,-0.998,0.237,13.977,31.677,127.502
0.531,-0.938,0.218,13.794,34.668,135.864
0.543,-0.875,0.191,15.137,37.231,142.639
0.568,-0.812,0.165,14.465,38.879,146.851
0.588,-0.771,0.138,14.893,38.208,147.583
0.601,-0.731,0.116,15.503,34.912,146.240
0.640,-0.695,0.103,14.648,30.151,144.165
0.657,-0.631,0.114,12.878,24.048,143.555
0.680,-0.582,0.127,15.442,16.724,141.846
0.710,-0.549,0.143,15.503,11.414,138.000
0.743,-0.533,0.168,10.010,8.118,134.216
0.730,-0.529,0.196,4.333,7.935,132.019
0.766,-0.571,0.251,1.404,11.536,131.714
0.764,-0.418,0.247,-1.831,20.142,137.817
0.817,-0.409,0.158,17.822,27.893,125.305
0.825,-0.405,0.114,21.118,29.785,112.366
0.817,-0.396,0.081,10.254,27.344,105.042
0.815,-0.408,0.065,6.775,21.851,100.281
0.838,-0.394,0.065,3.967,15.381,100.708
0.860,-0.385,0.081,1.587,9.460,100.708
0.867,-0.379,0.099,0.366,6.287,98.999
0.876,-0.376,0.099,-0.732,6.165,96.375
0.884,-0.367,0.093,-1.282,7.019,94.116
0.884,-0.361,0.090,0.610,6.958,93.201
0.883,-0.335,0.089,2.686,7.629,94.238

0.793,1.532,0.250,119.202,-3.235,-37.659
0.645,1.908,0.196,124.878,20.203,-117.126
0.485,1.764,-0.013,75.806,49.255,-250.305
0.098,0.932,-0.011,6.409,42.358,-402.649
-0.064,0.316,0.062,-52.124,22.461,-456.116
-0.093,-0.025,0.183,-66.589,7.019,-457.458
-0.091,-0.188,0.346,-64.697,0.244,-445.374
-0.052,-0.351,0.458,-68.115,11.719,-441.650
-0.024,-0.528,0.494,-63.904,31.372,-454.163
0.003,-0.766,0.457,-59.937,52.734,-475.769
0.087,-1.106,0.374,-68.970,72.632,-479.065
0.153,-1.462,0.276,-88.318,87.830,-474.670
0.211,-1.887,0.168,-97.961,96.924,-464.722
0.320,-2.377,0.046,-93.384,94.666,-422.729
0.410,-2.708,-0.025,-81.909,76.355,-357.483
0.490,-2.914,-0.051,-54.626,48.279,-280.701
0.507,-3.034,-0.025,-17.822,15.503,-194.458
0.481,-2.932,0.087,1.221,-10.925,-93.323
0.498,-2.535,0.217,5.981,-24.902,6.287
0.486,-2.101,0.294,10.559,-26.123,80.627
0.457,-1.751,0.353,10.742,-21.790,125.000
0.428,-1.505,0.399,10.498,-13.916,152.222
0.406,-1.306,0.419,13.916,-1.587,172.180
0.395,-1.131,0.402,19.531,13.123,187.683
0.384,-0.976,0.353,24.780,28.320,197.754
0.390,-0.857,0.293,30.029,39.551,200.806
0.399,-0.765,0.236,31.067,46.143,199.341
0.418,-0.688,0.178,30.396,48.889,195.251
0.442,-0.636,0.129,29.907,47.913,188.660
0.473,-0.589,0.091,27.832,43.640,180.725
0.513,-0.549,0.063,22.095,37.476,173.828
0.562,-0.506,0.049,13.855,31.067,167.114
0.605,-0.484,0.048,9.277,24.536,158.325
0.656,-0.473,0.049,9.277,18.555,147.888
0.689,-0.493,0.056,10.559,13.672,136.475
0.720,-0.517,0.066,9.705,10.742,126.160
0.742,-0.542,0.056,9.094,10.193,118.530
0.651,-0.535,0.084,10.071,9.033,113.342
0.813,-0.518,0.028,18.005,8.850,108.032
0.806,-0.524,0.056,19.714,6.042,100.769
0.786,-0.485,0.088,11.902,6.836,104.797
0.791,-0.465,0.078,19.958,10.010,106.201
0.817,-0.433,0.038,24.048,13.428,102.356
0.835,-0.424,-0.002,24.292,12.207,94.666
0.830,-0.452,0.024,19.226,4.456,93.506
0.859,-0.436,0.055,11.414,0.061,98.938
0.865,-0.432,0.077,11.230,-0.549,100.403
0.873,-0.431,0.072,13.855,2.625,99.548
0.894,-0.423,0.038,15.137,6.653,98.999
0.882,-0.405,0.011,14.343,7.568,97.778

0.805,1.005,0.134,14.648,-122.681,-148.499
0.645,1.010,0.321,-23.254,-129.578,-227.905
0.429,0.776,0.439,-68.298,-111.694,-303.650
0.225,0.450,0.430,-64.514,-78.857,-352.051
0.177,0.268,0.344,-48.706,-47.913,-374.817
0.076,0.196,0.260,-41.260,-33.936,-387.695
-0.041,0.132,0.258,-47.546,-34.363,-399.780
-0.129,-0.046,0.346,-52.063,-42.480,-416.809
-0.145,-0.319,0.422,-47.180,-45.959,-435.669
-0.142,-0.572,0.471,-37.720,-42.847,-453.430
-0.045,-0.888,0.470,-23.560,-36.011,-473.938
0.021,-1.349,0.452,-17.456,-32.288,-491.333
0.091,-1.813,0.471,-45.715,-28.259,-488.525
0.120,-2.310,0.524,-72.754,-29.175,-452.698
0.208,-2.837,0.556,-74.463,-36.682,-413.757
0.172,-3.363,0.661,-70.984,-44.800,-380.432
0.169,-3.623,0.760,-69.702,-48.462,-286.560
0.179,-3.473,0.847,-49.866,-40.894,-128.723
0.222,-2.749,0.858,-5.676,-23.010,39.856
0.239,-2.006,0.829,25.024,-2.319,144.043
0.193,-1.467,0.808,21.851,16.724,183.594
0.200,-1.167,0.775,25.146,30.823,191.528
0.207,-0.985,0.726,35.889,42.847,191.101
0.244,-0.843,0.660,41.138,57.190,188.965
0.271,-0.744,0.574,46.509,70.618,184.265
0.284,-0.707,0.485,51.819,79.163,175.842
0.308,-0.722,0.407,48.889,83.191,166.138
0.326,-0.760,0.356,37.659,82.031,159.424
0.338,-0.785,0.324,24.658,78.247,156.555
0.360,-0.783,0.283,16.357,75.256,156.616
0.386,-0.765,0.234,14.099,72.510,157.104
0.421,-0.720,0.182,14.832,67.932,157.349
0.457,-0.676,0.144,17.090,60.059,156.494
0.517,-0.662,0.150,17.883,48.157,153.748
0.586,-0.659,0.170,15.869,35.095,149.475
0.613,-0.678,0.221,15.198,22.156,143.860
0.585,-0.679,0.294,15.930,14.648,141.113
0.593,-0.722,0.309,21.118,17.700,144.287
0.673,-0.592,0.291,23.682,23.132,149.841
0.664,-0.516,0.286,37.842,28.809,147.156
0.695,-0.531,0.221,51.086,33.020,139.709
0.688,-0.486,0.161,33.569,33.264,133.240
0.692,-0.478,0.142,14.343,25.024,125.000
0.695,-0.506,0.174,5.798,16.541,120.483
0.724,-0.494,0.203,2.869,15.625,128.052
0.755,-0.431,0.205,7.629,18.494,138.428
0.775,-0.379,0.191,15.015,20.508,142.639
0.797,-0.308,0.165,18.860,20.935,140.991
0.812,-0.262,0.137,19.714,18.555,137.024
0.828,-0.286,0.139,16.602,13.489,129.089

1.031,0.345,0.531,124.084,58.105,-14.465
1.041,0.496,0.568,126.465,86.731,-16.418
0.994,0.605,0.567,135.071,120.911,-37.598
0.881,0.609,0.480,139.038,162.964,-75.073
0.792,0.558,0.301,124.695,206.848,-114.380
0.742,0.456,0.094,100.647,238.159,-151.855
0.698,0.347,-0.047,74.097,250.366,-187.195
0.645,0.241,-0.102,48.767,244.263,-221.375
0.546,0.087,-0.091,38.818,231.567,-246.460
0.498,0.045,-0.047,31.555,226.746,-257.568
0.425,-0.016,-0.033,30.640,234.497,-268.250
0.360,-0.090,-0.079,35.767,251.709,-282.837
0.300,-0.190,-0.195,34.851,269.287,-295.898
0.250,-0.297,-0.360,25.330,281.189,-307.983
0.216,-0.420,-0.511,14.709,279.785,-317.566
0.143,-0.562,-0.642,12.817,266.235,-322.815
0.103,-0.699,-0.777,11.292,246.765,-324.646
0.066,-0.849,-0.864,-1.404,217.163,-318.481
0.059,-0.997,-0.901,-14.771,179.382,-307.373
0.084,-1.158,-0.889,-24.109,139.893,-293.701
0.125,-1.322,-0.844,-28.564,103.149,-281.494
0.122,-1.557,-0.753,-32.410,74.158,-257.080
0.138,-1.726,-0.697,-38.757,55.969,-213.867
0.185,-1.884,-0.718,-35.217,45.593,-162.537
0.206,-1.968,-0.733,-32.349,34.424,-114.563
0.208,-2.019,-0.765,-29.602,20.691,-67.139
0.168,-2.010,-0.796,-29.907,4.944,-18.372
0.134,-1.980,-0.843,-32.104,-12.390,24.048
0.141,-1.900,-0.865,-31.372,-35.583,61.646
0.133,-1.809,-0.805,-27.344,-67.383,95.703
0.156,-1.682,-0.681,-25.635,-99.915,126.648
0.166,-1.564,-0.516,-25.391,-126.160,156.555
0.196,-1.427,-0.386,-25.085,-143.738,186.462
0.244,-1.292,-0.287,-26.917,-150.269,210.632
0.277,-1.167,-0.207,-26.917,-150.391,229.614
0.324,-1.018,-0.138,-26.306,-147.461,245.850
0.336,-0.845,-0.082,-23.987,-141.846,258.850
0.485,-0.666,-0.043,-18.250,-134.521,267.212
0.488,-0.519,0.037,-9.705,-124.634,263.428
0.507,-0.398,0.017,-3.845,-103.577,254.272
0.568,-0.286,-0.026,0.183,-78.735,243.591
0.577,-0.254,-0.124,7.446,-58.411,223.999
0.637,-0.238,-0.214,4.395,-43.396,201.843
0.656,-0.238,-0.271,-1.465,-34.363,180.115
0.676,-0.258,-0.318,-2.258,-30.457,160.217
0.706,-0.283,-0.350,-0.427,-31.250,144.287
0.725,-0.317,-0.361,0.366,-36.255,132.874
0.749,-0.328,-0.333,0.366,-43.762,124.756
0.774,-0.343,-0.311,0.000,-48.889,117.432
0.799,-0.347,-0.282,0.916,-52.185,111.328

0.932,0.963,0.460,80.627,28.687,-3.967
0.738,1.533,0.462,101.074,63.293,-51.636
0.650,1.971,0.275,119.995,103.699,-135.315
0.420,1.920,-0.026,108.032,137.573,-254.517
0.197,1.524,-0.155,39.001,136.475,-377.502
-0.035,0.837,-0.082,-13.062,105.957,-464.661
-0.165,0.303,0.121,-37.659,74.890,-503.235
-0.253,0.005,0.312,-65.125,65.186,-505.310
-0.278,-0.192,0.369,-83.191,77.332,-497.131
-0.332,-0.342,0.393,-106.018,94.238,-491.394
-0.233,-0.556,0.315,-112.122,106.323,-497.253
-0.216,-0.903,0.195,-117.615,117.554,-516.113
-0.181,-1.315,0.029,-136.841,130.554,-541.077
-0.109,-1.884,-0.181,-151.428,137.878,-543.396
0.066,-2.530,-0.358,-151.062,122.681,-488.464
0.248,-2.917,-0.436,-136.719,87.097,-409.912
0.287,-3.262,-0.441,-94.299,43.579,-341.553
0.276,-3.426,-0.332,-56.152,3.052,-250.366
0.306,-3.264,-0.222,-31.006,-21.484,-121.155
0.333,-2.774,-0.105,-5.371,-38.513,0.732
0.357,-2.258,0.011,8.179,-48.706,84.717
0.369,-1.860,0.143,5.981,-53.589,130.066
0.360,-1.610,0.268,9.644,-52.246,153.442
0.303,-1.403,0.357,16.968,-42.786,171.570
0.352,-1.193,0.362,22.583,-23.437,187.073
0.338,-1.036,0.328,30.396,-2.747,194.641
0.351,-0.939,0.245,37.109,14.282,195.679
0.373,-0.895,0.162,40.955,25.574,193.604
0.364,-0.863,0.093,34.485,29.846,192.383
0.367,-0.830,0.024,25.513,30.823,193.115
0.397,-0.822,-0.038,22.888,26.733,194.092
0.414,-0.824,-0.077,20.630,18.494,194.824
0.437,-0.811,-0.108,14.404,10.315,198.364
0.463,-0.772,-0.138,11.841,2.808,202.820
0.494,-0.708,-0.165,17.517,-5.249,205.750
0.527,-0.615,-0.175,26.062,-16.113,206.665
0.576,-0.518,-0.162,35.400,-29.724,203.613
0.621,-0.454,-0.126,43.762,-44.250,195.923
0.695,-0.403,-0.083,44.983,-56.702,185.852
0.692,-0.410,-0.051,39.429,-66.528,175.171
0.765,-0.351,0.054,22.583,-75.256,167.480
0.766,-0.323,0.133,18.250,-76.233,162.537
0.795,-0.299,0.154,21.790,-67.261,154.724
0.796,-0.258,0.109,16.357,-54.443,143.921
0.795,-0.267,0.089,10.254,-45.044,130.371
0.818,-0.280,0.100,4.028,-37.476,123.535
0.860,-0.265,0.104,-0.671,-29.114,122.375
0.883,-0.260,0.091,-1.099,-22.095,118.103
0.897,-0.250,0.069,-1.282,-16.968,111.450
0.908,-0.245,0.040,-3.113,-13.733,104.736

0.973,0.712,0.319,56.885,32.593,-15.381
0.899,0.943,0.308,63.965,55.725,-35.706
0.780,1.167,0.243,63.232,85.388,-85.815
0.613,1.347,0.080,58.411,111.755,-162.781
0.513,1.249,-0.067,52.124,117.310,-257.263
0.317,1.019,-0.036,27.466,99.243,-342.529
0.165,0.640,0.065,10.864,78.979,-406.677
0.036,0.316,0.186,7.629,74.158,-449.524
-0.080,-0.017,0.184,-3.601,90.393,-471.008
-0.127,-0.321,0.114,-31.982,114.258,-482.239
-0.142,-0.544,0.085,-73.669,125.427,-485.657
-0.087,-0.789,0.065,-104.980,125.671,-490.540
-0.016,-1.110,0.049,-122.253,116.760,-485.596
0.062,-1.436,0.024,-139.832,106.201,-460.388
0.192,-1.781,-0.045,-141.479,100.464,-417.847
0.349,-2.180,-0.171,-119.385,94.849,-361.511
0.477,-2.449,-0.269,-98.206,81.909,-300.781
0.533,-2.673,-0.326,-71.045,60.608,-244.080
0.583,-2.841,-0.354,-38.574,35.461,-181.885
0.548,-2.829,-0.286,-14.648,7.935,-102.722
0.551,-2.598,-0.177,-0.854,-13.611,-12.878
0.564,-2.297,-0.074,6.104,-27.039,62.866
0.550,-1.981,0.041,5.798,-34.241,118.225
0.544,-1.707,0.147,14.709,-38.025,157.532
0.512,-1.471,0.247,27.222,-38.330,187.073
0.499,-1.203,0.322,30.457,-33.081,212.524
0.485,-0.980,0.357,36.377,-21.790,229.736
0.479,-0.785,0.353,41.870,-7.324,237.610
0.494,-0.615,0.308,39.612,8.484,239.502
0.519,-0.482,0.239,33.325,24.475,235.474
0.545,-0.374,0.160,24.170,36.438,227.051
0.569,-0.296,0.073,15.625,43.884,214.355
0.606,-0.276,-0.003,14.221,45.715,196.594
0.629,-0.309,-0.073,15.747,43.884,176.758
0.663,-0.348,-0.124,11.597,41.260,158.020
0.699,-0.391,-0.161,10.437,36.682,143.188
0.715,-0.434,-0.187,18.188,30.457,131.104
0.739,-0.443,-0.200,25.391,24.109,123.291
0.748,-0.438,-0.209,34.180,17.395,116.577
0.798,-0.452,-0.222,44.189,9.399,109.070
0.810,-0.443,-0.238,46.570,2.075,103.516
0.811,-0.408,-0.166,34.424,-6.470,100.769
0.829,-0.367,-0.104,26.123,-9.644,99.854
0.832,-0.373,-0.092,29.724,-7.019,95.520
0.855,-0.383,-0.136,29.175,-3.113,89.294
0.868,-0.414,-0.155,26.123,-3.174,83.557
0.866,-0.432,-0.142,22.949,-6.958,83.435
0.862,-0.449,-0.138,26.550,-10.071,85.693
0.858,-0.460,-0.134,32.349,-11.475,88.989
0.873,-0.437,-0.133,33.142,-11.597,94.666

1.012,0.776,0.374,76.843,27.588,11.108
0.873,1.106,0.376,99.609,57.495,-14.954
0.702,1.431,0.266,110.046,94.543,-89.233
0.621,1.623,0.056,93.262,126.343,-175.171
0.401,1.678,-0.067,53.589,135.864,-267.395
0.073,1.349,-0.103,23.254,127.502,-367.310
-0.128,0.846,-0.137,-5.615,117.737,-447.876
-0.252,0.348,-0.110,-52.002,104.553,-492.371
-0.368,-0.120,-0.014,-104.980,89.905,-513.611
-0.318,-0.474,0.071,-134.521,79.651,-523.071
-0.255,-0.746,0.112,-141.479,75.989,-533.264
-0.142,-1.092,0.078,-143.127,80.078,-534.119
-0.142,-1.403,0.011,-156.677,86.304,-507.263
0.015,-1.696,-0.114,-165.100,90.393,-457.275
0.177,-2.013,-0.218,-149.475,81.055,-399.597
0.348,-2.286,-0.295,-125.488,61.096,-350.769
0.397,-2.571,-0.320,-98.511,36.804,-307.678
0.419,-2.760,-0.280,-80.383,14.771,-248.230
0.421,-2.826,-0.221,-58.167,-1.404,-171.082
0.464,-2.730,-0.157,-26.428,-14.893,-87.219
0.430,-2.459,-0.064,-2.869,-26.306,-8.728
0.464,-2.140,0.013,8.484,-30.151,52.246
0.464,-1.974,0.091,22.827,-30.029,89.844
0.446,-1.860,0.167,30.884,-26.611,118.713
0.358,-1.673,0.213,34.729,-18.677,149.475
0.362,-1.437,0.194,41.870,-8.362,179.932
0.374,-1.253,0.159,49.255,-2.075,201.355
0.365,-1.099,0.153,48.096,-1.465,214.539
0.371,-0.976,0.152,44.373,-2.869,222.961
0.399,-0.860,0.143,39.795,-3.723,228.271
0.431,-0.768,0.128,32.898,-3.052,231.323
0.455,-0.668,0.113,22.522,-0.793,232.239
0.461,-0.562,0.079,16.174,3.967,231.018
0.502,-0.474,0.014,18.738,10.071,225.891
0.557,-0.405,-0.058,22.400,14.160,216.431
0.604,-0.357,-0.119,24.292,13.916,203.064
0.639,-0.348,-0.158,26.245,8.850,186.768
0.674,-0.351,-0.170,29.175,1.709,169.922
0.685,-0.377,-0.163,34.485,-5.737,155.273
0.700,-0.388,-0.159,35.706,-11.169,142.883
0.789,-0.466,-0.187,32.959,-15.320,134.460
0.770,-0.435,-0.080,23.010,-22.583,132.080
0.787,-0.407,-0.044,30.090,-23.132,133.240
0.807,-0.394,-0.063,46.021,-17.517,130.676
0.828,-0.362,-0.115,49.805,-12.207,125.793
0.830,-0.340,-0.122,43.457,-12.512,120.178
0.842,-0.326,-0.111,38.086,-14.404,117.065
0.850,-0.303,-0.104,37.903,-16.235,114.807
0.870,-0.292,-0.094,35.339,-16.846,112.671
0.885,-0.294,-0.083,30.518,-15.503,110.901

0.748,1.236,0.026,-11.108,-9.399,-64.697
0.577,1.156,-0.105,-5.127,-2.075,-166.382
0.429,0.988,-0.204,-52.063,-5.981,-245.056
0.300,0.686,-0.219,-88.379,-27.466,-300.842
0.145,0.416,-0.155,-92.590,-57.800,-337.463
0.047,0.298,-0.093,-107.544,-79.956,-355.164
0.004,0.191,0.033,-124.390,-100.281,-365.051
-0.018,0.035,0.262,-135.803,-119.507,-375.732
0.042,-0.115,0.563,-149.414,-129.639,-385.132
0.181,-0.303,0.864,-153.015,-128.845,-403.809
0.330,-0.536,1.038,-127.380,-115.051,-441.223
0.459,-0.946,1.073,-82.153,-87.341,-489.441
0.440,-1.445,1.014,-42.542,-50.964,-529.053
0.356,-2.058,0.816,-21.362,-0.183,-536.194
0.290,-2.616,0.500,-28.198,56.152,-505.249
0.236,-3.106,0.194,-50.049,86.365,-447.083
0.296,-3.476,0.049,-62.744,68.359,-342.834
0.372,-3.519,0.186,-54.993,16.968,-189.636
0.421,-2.969,0.525,-23.621,-33.020,-9.705
0.423,-2.219,0.786,12.146,-45.593,126.465
0.410,-1.699,0.885,28.931,-18.799,187.134
0.390,-1.426,0.840,30.579,22.644,205.200
0.365,-1.259,0.703,33.630,63.293,211.609
0.356,-1.147,0.552,48.340,88.684,218.384
0.331,-1.089,0.442,67.505,97.473,226.013
0.330,-1.016,0.357,80.994,100.281,234.314
0.323,-0.949,0.270,96.313,100.403,241.882
0.341,-0.898,0.183,110.718,95.764,246.460
0.361,-0.848,0.125,119.934,84.595,248.108
0.361,-0.770,0.100,122.803,70.679,251.282
0.401,-0.674,0.075,114.197,59.509,255.310
0.447,-0.517,0.073,92.285,50.781,257.690
0.515,-0.397,0.070,76.843,43.152,255.127
0.566,-0.330,0.064,76.660,37.659,246.399
0.612,-0.273,0.047,84.106,31.372,233.337
0.665,-0.227,0.039,86.060,24.475,219.666
0.650,-0.167,0.040,82.886,18.127,207.764
0.714,-0.121,0.004,77.271,14.526,196.106
0.792,-0.127,-0.026,66.406,7.751,182.373
0.746,-0.028,0.058,39.246,0.854,174.072
0.815,-0.041,0.026,49.500,3.723,164.551
0.807,-0.073,-0.014,65.369,7.324,152.588
0.838,-0.078,-0.079,63.171,8.667,143.188
0.875,-0.063,-0.110,50.598,5.127,137.878
0.891,-0.045,-0.083,38.757,-2.441,133.911
0.894,-0.072,-0.039,40.710,-9.277,127.441
0.889,-0.078,-0.003,43.884,-11.536,124.695
0.897,-0.022,0.011,38.513,-9.033,126.038
0.904,0.043,0.007,36.316,-6.897,125.977
0.917,0.080,0.001,38.086,-6.592,122.742

1.006,0.749,0.207,15.503,7.690,-16.907
0.968,0.966,0.236,21.240,19.409,-36.743
0.905,1.174,0.233,18.555,36.011,-76.965
0.837,1.236,0.151,15.381,54.688,-132.996
0.871,1.054,-0.044,7.568,69.214,-191.223
0.583,0.907,-0.094,-18.921,62.805,-231.567
0.550,0.861,-0.156,-46.021,46.021,-258.850
0.456,0.773,-0.125,-72.876,23.865,-289.307
0.316,0.671,-0.057,-116.333,2.380,-318.970
0.205,0.489,-0.015,-156.067,-9.155,-349.426
0.117,0.288,0.047,-183.411,-20.447,-374.268
0.063,0.105,0.164,-202.759,-33.081,-390.808
0.031,-0.109,0.279,-202.942,-42.358,-404.785
0.042,-0.325,0.354,-187.378,-43.152,-412.659
0.078,-0.513,0.396,-170.898,-36.316,-414.673
0.150,-0.698,0.393,-153.748,-27.100,-416.565
0.203,-0.933,0.341,-132.019,-17.395,-426.086
0.203,-1.251,0.257,-114.197,-7.263,-432.678
0.273,-1.578,0.159,-106.628,-1.038,-408.142
0.373,-1.850,0.092,-107.300,-4.639,-371.277
0.460,-2.172,0.085,-98.145,-20.081,-339.050
0.488,-2.536,0.177,-77.881,-43.640,-303.101
0.513,-2.809,0.307,-62.256,-58.655,-244.019
0.546,-2.864,0.428,-51.392,-58.960,-152.466
0.553,-2.596,0.498,-30.212,-48.462,-44.617
0.567,-2.142,0.532,-11.902,-33.569,43.579
0.567,-1.759,0.564,-5.249,-19.165,96.619
0.551,-1.495,0.599,3.784,-6.104,123.352
0.519,-1.323,0.611,19.104,8.850,137.573
0.500,-1.176,0.573,36.682,28.137,147.583
0.490,-1.038,0.501,50.415,46.265,156.189
0.458,-0.963,0.413,65.491,58.655,159.790
0.481,-0.925,0.312,79.102,62.988,160.339
0.497,-0.904,0.261,86.182,61.035,163.940
0.499,-0.853,0.226,83.923,57.678,169.373
0.511,-0.780,0.191,72.510,56.091,174.744
0.541,-0.691,0.154,57.251,53.955,178.589
0.562,-0.609,0.120,45.776,50.598,178.040
0.594,-0.542,0.089,41.992,46.753,173.157
0.632,-0.493,0.062,42.114,42.664,165.710
0.679,-0.451,0.041,44.128,38.635,156.494
0.700,-0.427,0.028,47.668,34.485,146.484
0.719,-0.417,0.011,49.988,32.288,136.719
0.747,-0.455,-0.017,51.270,30.762,127.258
0.712,-0.506,-0.021,48.096,28.625,121.094
0.781,-0.499,-0.070,46.570,27.039,120.300
0.784,-0.458,-0.048,42.664,21.301,121.399
0.763,-0.384,-0.017,44.434,18.250,124.268
0.773,-0.362,-0.050,59.326,19.714,121.033
0.804,-0.336,-0.095,56.824,22.156,115.173

0.830,1.190,-0.045,-16.357,-35.767,2.930
0.752,1.765,0.021,-42.175,-30.640,-32.654
0.624,2.045,-0.086,-46.936,-16.174,-137.573
0.381,1.804,-0.168,-52.368,-17.700,-260.010
0.100,1.394,-0.130,-70.129,-37.109,-350.952
-0.092,1.002,-0.051,-86.731,-57.007,-413.757
-0.298,0.657,0.115,-103.088,-76.477,-456.238
-0.367,0.313,0.338,-116.699,-91.064,-488.953
-0.360,-0.026,0.611,-122.437,-97.961,-513.733
-0.268,-0.321,0.839,-119.812,-92.468,-534.058
-0.122,-0.673,0.965,-106.201,-74.097,-553.162
0.032,-1.176,0.951,-76.416,-46.082,-568.237
0.170,-1.825,0.735,-58.899,-8.972,-563.354
0.220,-2.398,0.435,-89.355,30.579,-515.625
0.295,-2.894,0.131,-108.032,53.528,-456.909
0.375,-3.345,-0.078,-86.609,43.213,-379.456
0.442,-3.553,-0.033,-64.880,2.625,-265.930
0.495,-3.332,0.232,-42.908,-44.312,-122.192
0.539,-2.646,0.471,-8.789,-66.528,15.442
0.544,-2.005,0.586,11.353,-57.495,99.243
0.537,-1.589,0.622,21.606,-37.292,133.057
0.516,-1.320,0.632,34.424,-19.836,146.912
0.495,-1.144,0.626,48.340,-3.906,153.259
0.478,-1.007,0.591,58.960,13.123,156.982
0.480,-0.917,0.521,66.772,31.860,158.203
0.471,-0.895,0.441,77.454,46.387,157.349
0.472,-0.876,0.367,83.130,55.420,158.447
0.465,-0.815,0.296,79.651,61.462,162.048
0.469,-0.726,0.215,74.951,66.101,166.077
0.493,-0.636,0.122,69.031,67.017,167.480
0.520,-0.564,0.045,61.646,61.829,164.856
0.558,-0.523,0.002,49.805,51.270,157.898
0.628,-0.533,-0.010,35.706,38.269,147.705
0.675,-0.557,0.019,25.940,25.818,138.550
0.723,-0.564,0.063,26.062,15.381,133.545
0.766,-0.589,0.103,33.203,8.301,130.676
0.782,-0.587,0.141,39.917,5.798,130.188
0.804,-0.571,0.157,45.593,6.958,131.531
0.814,-0.537,0.151,50.049,10.315,133.667
0.812,-0.465,0.135,52.612,13.306,136.658
0.803,-0.386,0.107,55.481,14.709,137.573
0.818,-0.328,0.075,54.565,14.526,135.071
0.847,-0.305,0.062,46.814,12.756,130.798
0.783,-0.286,0.086,35.156,10.254,126.343
0.849,-0.274,0.058,26.978,11.414,123.535
0.876,-0.250,0.040,17.517,12.146,121.521
0.868,-0.193,0.050,13.123,12.695,122.437
0.866,-0.156,0.010,28.992,15.747,120.239
0.880,-0.126,-0.022,32.104,19.348,113.831
0.881,-0.138,-0.072,32.654,18.738,103.760

0.569,0.993,-0.116,-87.219,-25.818,-181.885
0.456,0.849,-0.168,-106.873,-32.349,-246.887
0.302,0.548,-0.131,-121.582,-47.852,-303.955
0.178,0.197,-0.054,-118.835,-68.420,-343.689
0.102,-0.030,0.033,-118.774,-83.801,-360.291
0.092,-0.142,0.164,-122.986,-94.666,-364.502
0.117,-0.263,0.311,-114.563,-102.478,-370.789
0.148,-0.405,0.455,-94.543,-104.370,-382.446
0.194,-0.550,0.546,-74.280,-96.741,-399.475
0.234,-0.742,0.596,-52.856,-82.764,-421.509
0.301,-1.065,0.609,-36.011,-67.871,-437.439
0.369,-1.445,0.610,-36.438,-52.856,-432.922
0.414,-1.881,0.594,-48.462,-36.621,-414.673
0.486,-2.244,0.600,-58.960,-22.705,-381.775
0.502,-2.619,0.610,-47.791,-15.625,-335.571
0.513,-2.885,0.638,-29.724,-11.841,-266.113
0.499,-2.990,0.703,-11.414,-8.118,-170.471
0.504,-2.750,0.744,13.184,-0.916,-57.312
0.528,-2.264,0.711,51.514,11.292,43.640
0.505,-1.861,0.673,77.576,25.452,103.516
0.452,-1.627,0.650,84.961,37.964,130.554
0.420,-1.507,0.619,91.675,49.927,147.522
0.394,-1.419,0.567,104.919,61.096,165.527
0.367,-1.270,0.506,112.976,69.824,187.927
0.339,-1.069,0.444,110.291,76.538,210.205
0.341,-0.887,0.374,106.262,81.360,224.060
0.352,-0.725,0.298,104.004,83.191,230.530
0.363,-0.586,0.219,97.168,82.703,230.591
0.416,-0.477,0.147,83.923,80.750,225.098
0.461,-0.377,0.089,70.557,73.975,216.553
0.506,-0.281,0.045,58.289,65.186,205.505
0.568,-0.222,0.010,50.598,57.007,190.491
0.631,-0.217,-0.024,46.326,49.927,171.387
0.668,-0.230,-0.050,40.405,43.518,151.489
0.718,-0.289,-0.067,33.997,37.415,132.996
0.755,-0.380,-0.064,31.677,31.433,116.821
0.758,-0.447,-0.058,34.546,26.306,106.995
0.726,-0.479,-0.055,38.452,23.132,103.699
0.812,-0.492,-0.083,42.114,22.278,104.309
0.829,-0.479,-0.083,39.978,19.409,106.567
0.814,-0.377,-0.045,33.142,15.869,112.915
0.832,-0.351,-0.062,47.363,14.282,112.854
0.847,-0.346,-0.083,49.805,14.038,109.070
0.862,-0.354,-0.104,38.635,12.024,104.675
0.872,-0.345,-0.071,25.391,5.615,103.516
0.891,-0.347,-0.037,23.682,0.610,103.271
0.888,-0.337,-0.016,28.687,-0.916,104.614
0.896,-0.316,-0.022,31.128,1.404,107.178
0.899,-0.297,-0.061,31.921,5.859,108.704
0.892,-0.265,-0.094,28.564,7.019,110.229

0.814,1.203,0.089,0.488,6.409,-46.692
0.752,1.646,0.045,0.244,15.503,-94.482
0.540,1.828,-0.071,-15.198,28.320,-183.960
0.312,1.491,-0.241,-45.227,29.968,-301.941
0.103,0.894,-0.217,-63.721,6.042,-393.005
-0.040,0.433,-0.050,-68.604,-25.757,-443.420
-0.117,0.127,0.158,-71.472,-42.969,-466.614
-0.197,-0.109,0.286,-78.125,-41.748,-477.356
-0.140,-0.324,0.335,-88.440,-31.372,-488.953
-0.140,-0.582,0.411,-95.459,-25.452,-498.230
0.030,-0.904,0.473,-96.130,-22.949,-504.883
0.139,-1.316,0.468,-92.224,-18.005,-510.681
0.245,-1.868,0.401,-104.553,-4.883,-499.512
0.348,-2.479,0.323,-121.521,9.399,-462.036
0.447,-2.984,0.257,-100.891,13.733,-397.705
0.513,-3.338,0.206,-55.298,11.597,-306.946
0.521,-3.350,0.200,-22.644,6.958,-181.458
0.554,-2.852,0.218,5.737,0.366,-44.434
0.590,-2.253,0.263,27.100,-4.639,57.739
0.584,-1.862,0.353,31.006,-8.423,109.070
0.557,-1.609,0.452,34.424,-8.789,135.803
0.541,-1.399,0.513,44.128,-2.625,156.921
0.529,-1.162,0.521,54.382,10.559,174.866
0.510,-0.962,0.475,64.941,26.978,186.462
0.505,-0.820,0.400,70.068,40.466,189.514
0.518,-0.706,0.330,64.392,49.988,188.293
0.522,-0.627,0.262,56.580,55.725,185.242
0.534,-0.548,0.203,46.448,58.472,180.725
0.565,-0.497,0.135,38.147,58.716,173.401
0.599,-0.468,0.077,30.762,56.396,164.551
0.633,-0.458,0.036,22.217,51.697,154.968
0.675,-0.478,0.011,15.747,46.326,144.531
0.708,-0.506,-0.008,13.611,42.358,135.376
0.731,-0.539,-0.038,15.686,40.222,129.089
0.751,-0.541,-0.069,23.010,37.231,125.061
0.774,-0.525,-0.092,33.447,31.433,122.681
0.784,-0.491,-0.089,40.588,24.536,121.094
0.792,-0.468,-0.081,45.532,18.372,118.164
0.802,-0.460,-0.073,45.654,13.794,115.295
0.798,-0.431,-0.064,41.321,11.658,115.295
0.834,-0.409,-0.076,35.583,9.094,116.150
0.807,-0.305,-0.025,25.330,6.714,119.751
0.828,-0.261,-0.043,36.560,7.935,118.896
0.834,-0.249,-0.074,41.626,10.376,112.427
0.865,-0.235,-0.114,32.104,11.230,104.919
0.871,-0.222,-0.106,18.982,7.324,98.755
0.897,-0.245,-0.089,15.625,2.014,93.018
0.908,-0.277,-0.063,18.677,-0.854,88.989
0.915,-0.286,-0.049,19.958,-1.099,88.623
0.925,-0.283,-0.064,19.409,0.793,89.050

0.854,1.242,0.148,-1.038,-10.315,-32.288
0.771,1.690,0.127,-1.404,2.808,-89.661
0.562,1.767,0.012,-9.766,16.479,-206.970
0.320,1.403,-0.038,-38.391,14.771,-321.777
0.083,0.813,-0.033,-60.791,1.038,-402.832
-0.058,0.332,0.014,-71.716,-10.925,-448.303
-0.162,-0.014,0.055,-86.853,-18.372,-468.140
-0.173,-0.254,0.083,-107.849,-23.560,-475.952
-0.140,-0.494,0.223,-127.625,-35.095,-479.797
-0.030,-0.810,0.387,-133.423,-49.438,-486.084
0.104,-1.183,0.507,-133.911,-55.664,-492.798
0.213,-1.670,0.516,-128.906,-46.387,-488.037
0.355,-2.192,0.421,-119.141,-27.344,-443.298
0.469,-2.574,0.350,-106.628,-12.085,-373.108
0.525,-2.924,0.309,-72.205,-5.371,-307.373
0.568,-3.089,0.274,-34.973,-1.282,-216.187
0.612,-2.887,0.257,-8.179,-0.732,-101.196
0.619,-2.407,0.301,6.836,-3.967,3.235
0.631,-1.986,0.387,13.855,-6.531,71.228
0.633,-1.706,0.495,21.057,-6.042,109.314
0.602,-1.515,0.567,34.119,1.404,132.812
0.584,-1.324,0.570,49.988,16.785,152.649
0.557,-1.173,0.506,66.162,35.461,168.213
0.540,-1.061,0.426,74.646,50.354,179.871
0.518,-0.948,0.355,69.336,58.838,191.162
0.489,-0.820,0.312,58.228,63.049,200.134
0.517,-0.688,0.264,49.622,64.758,205.688
0.545,-0.574,0.206,43.640,65.552,206.238
0.576,-0.484,0.140,35.400,65.308,201.843
0.606,-0.429,0.070,28.931,62.988,194.763
0.637,-0.381,0.013,21.545,58.472,187.256
0.681,-0.347,-0.033,17.334,52.185,177.917
0.716,-0.329,-0.050,18.616,44.128,167.603
0.748,-0.325,-0.037,24.048,33.691,156.738
0.792,-0.353,-0.017,31.555,24.353,146.362
0.802,-0.387,0.004,39.185,18.494,137.817
0.816,-0.392,0.011,46.692,16.174,133.362
0.819,-0.377,-0.001,51.514,15.686,132.080
0.818,-0.325,-0.025,46.692,16.296,132.324
0.778,-0.244,-0.040,37.903,15.442,132.019
0.816,-0.178,-0.072,34.546,13.367,130.127
0.882,-0.147,-0.100,29.602,8.057,124.573
0.856,-0.101,-0.036,15.930,1.160,120.056
0.876,-0.117,-0.036,23.437,-0.977,112.976
0.881,-0.131,-0.047,25.757,0.366,104.797
0.918,-0.160,-0.077,19.775,1.343,97.473
0.928,-0.174,-0.058,9.033,-1.038,93.262
0.934,-0.183,-0.024,5.798,-3.052,91.431
0.942,-0.191,-0.009,12.268,-3.418,91.125
0.940,-0.180,-0.017,16.113,-0.854,91.919

0.787,1.409,0.190,-11.230,20.569,-83.679
0.623,1.547,0.111,-27.100,34.119,-182.495
0.409,1.272,-0.029,-62.683,45.471,-287.598
0.243,0.819,-0.072,-106.262,36.072,-358.276
0.114,0.401,0.033,-121.277,9.644,-400.574
0.038,0.114,0.204,-125.916,-12.512,-420.898
0.008,-0.074,0.323,-134.216,-18.555,-429.382
-0.030,-0.222,0.368,-144.836,-13.245,-434.631
-0.003,-0.437,0.352,-151.001,-6.958,-441.040
0.062,-0.763,0.288,-147.888,-5.310,-460.144
0.111,-1.178,0.247,-145.935,-4.272,-493.835
0.171,-1.755,0.222,-137.146,-3.540,-504.761
0.201,-2.359,0.204,-128.662,-1.404,-440.796
0.345,-2.640,0.166,-111.633,1.709,-343.445
0.429,-2.790,0.156,-73.914,1.038,-255.798
0.471,-2.692,0.169,-58.594,0.977,-164.368
0.504,-2.410,0.200,-57.495,-0.427,-79.163
0.529,-2.096,0.273,-50.842,-5.920,-15.198
0.547,-1.796,0.381,-42.053,-10.498,28.137
0.549,-1.549,0.463,-25.452,-7.080,57.617
0.541,-1.414,0.487,-0.305,4.150,73.547
0.522,-1.344,0.464,20.569,21.545,82.886
0.502,-1.325,0.408,38.635,37.964,91.858
0.468,-1.341,0.313,57.678,49.927,102.417
0.455,-1.279,0.249,64.087,54.749,117.249
0.445,-1.202,0.238,63.843,52.490,133.301
0.432,-1.134,0.223,74.524,49.866,145.874
0.459,-1.048,0.191,77.271,49.255,157.349
0.472,-0.957,0.167,69.763,49.072,166.260
0.484,-0.870,0.134,63.293,47.302,171.326
0.538,-0.812,0.106,59.937,41.321,173.950
0.556,-0.758,0.098,56.091,33.203,175.354
0.589,-0.698,0.095,51.636,27.588,175.659
0.613,-0.650,0.087,50.415,24.719,174.561
0.565,-0.577,0.095,49.622,21.545,173.096
0.708,-0.520,0.065,49.744,20.752,170.959
0.729,-0.487,0.078,45.532,17.517,164.856
0.714,-0.422,0.118,38.818,16.846,159.607
0.740,-0.416,0.078,53.833,22.461,151.184
0.732,-0.399,0.019,58.655,29.541,142.822
0.757,-0.384,-0.063,53.650,34.119,136.047
0.765,-0.366,-0.110,46.265,30.945,131.714
0.776,-0.321,-0.114,38.452,23.682,129.272
0.804,-0.288,-0.117,37.598,16.602,124.451
0.830,-0.293,-0.115,40.588,10.071,117.615
0.831,-0.312,-0.109,36.743,5.493,111.755
0.856,-0.324,-0.098,26.184,3.784,107.849
0.859,-0.321,-0.087,21.973,2.380,106.628
0.866,-0.290,-0.096,26.001,1.892,108.154
0.878,-0.247,-0.123,27.771,2.319,109.558

0.816,1.477,0.129,-8.118,-6.958,-46.509
0.675,1.644,0.042,-25.940,8.240,-139.954
0.462,1.421,-0.099,-42.297,12.817,-246.216
0.302,1.097,-0.126,-74.036,-7.080,-329.468
0.076,0.830,-0.039,-91.248,-36.438,-385.925
-0.067,0.656,0.043,-96.069,-53.650,-425.720
-0.144,0.443,0.090,-93.262,-59.998,-461.365
-0.337,0.141,0.134,-82.458,-58.777,-492.187
-0.358,-0.159,0.166,-73.120,-54.321,-511.169
-0.284,-0.508,0.203,-62.500,-53.772,-528.503
-0.222,-0.908,0.200,-71.228,-54.138,-553.833
-0.139,-1.364,0.196,-101.563,-52.795,-576.538
-0.096,-1.950,0.268,-120.178,-56.702,-576.477
0.033,-2.543,0.379,-110.535,-64.270,-518.921
0.154,-2.995,0.504,-90.271,-66.833,-440.613
0.263,-3.296,0.619,-72.327,-59.692,-346.069
0.339,-3.387,0.693,-53.528,-41.748,-225.220
0.399,-3.044,0.685,-26.428,-17.578,-90.942
0.409,-2.475,0.626,-3.113,5.554,17.639
0.413,-2.000,0.581,6.042,22.705,78.125
0.392,-1.730,0.556,20.569,34.180,104.919
0.368,-1.610,0.523,43.884,44.495,119.141
0.328,-1.514,0.473,64.087,55.847,132.751
0.260,-1.386,0.416,77.026,65.613,150.085
0.285,-1.249,0.373,86.853,70.007,168.213
0.309,-1.148,0.344,93.445,70.557,181.152
0.304,-1.051,0.322,87.280,70.862,190.063
0.304,-0.951,0.281,76.904,72.266,196.106
0.365,-0.864,0.226,71.289,72.632,200.500
0.394,-0.779,0.167,64.392,69.153,204.102
0.413,-0.699,0.110,49.622,65.491,204.895
0.452,-0.660,0.053,34.424,61.340,201.172
0.504,-0.638,0.016,23.621,55.176,196.472
0.543,-0.607,0.009,17.395,46.509,192.810
0.580,-0.555,0.019,17.700,39.063,188.782
0.621,-0.491,0.020,26.428,34.790,183.105
0.646,-0.449,-0.003,41.077,32.532,174.500
0.619,-0.428,-0.019,50.171,31.677,164.551
0.734,-0.402,-0.097,52.246,32.166,155.762
0.753,-0.368,-0.086,44.373,24.902,146.423
0.740,-0.323,-0.047,40.771,17.639,140.625
0.763,-0.347,-0.054,56.458,14.526,132.019
0.758,-0.358,-0.069,55.359,13.306,124.084
0.785,-0.348,-0.098,39.917,13.062,118.164
0.801,-0.341,-0.109,27.405,9.644,114.624
0.818,-0.336,-0.102,24.231,4.639,112.671
0.841,-0.312,-0.093,26.306,1.343,111.267
0.852,-0.288,-0.090,28.687,0.000,109.192
0.872,-0.270,-0.097,29.419,-0.977,105.957
0.890,-0.286,-0.101,24.597,-2.380,102.234

0.843,1.249,0.194,36.255,17.456,-43.701
0.811,1.695,0.130,31.372,31.311,-118.042
0.620,1.581,0.014,7.690,41.687,-233.582
0.381,1.133,-0.049,-44.495,42.664,-329.590
0.228,0.628,-0.057,-75.195,29.114,-390.015
0.108,0.268,0.003,-88.684,10.986,-417.542
0.000,0.026,0.089,-101.013,-0.610,-429.077
-0.011,-0.169,0.140,-109.680,-2.991,-434.143
-0.065,-0.322,0.168,-116.577,-1.465,-438.354
-0.091,-0.473,0.180,-122.864,1.892,-437.927
-0.096,-0.684,0.161,-123.962,3.418,-436.157
-0.029,-0.962,0.138,-131.653,1.465,-437.988
0.065,-1.308,0.127,-131.226,-2.258,-454.102
0.131,-1.810,0.174,-111.328,-11.414,-465.088
0.217,-2.383,0.237,-90.454,-19.104,-417.664
0.334,-2.752,0.279,-70.984,-20.325,-340.942
0.382,-3.047,0.312,-46.387,-15.137,-267.273
0.397,-3.201,0.318,-25.513,-6.104,-182.007
0.430,-3.033,0.294,-12.695,4.028,-75.745
0.451,-2.623,0.280,2.319,8.850,25.513
0.426,-2.226,0.326,17.090,7.324,96.558
0.417,-1.899,0.392,31.311,5.737,139.709
0.392,-1.631,0.435,46.631,9.033,168.518
0.367,-1.395,0.444,60.059,16.846,189.270
0.329,-1.198,0.424,71.655,26.794,203.064
0.373,-1.032,0.370,79.346,35.583,211.548
0.369,-0.895,0.320,80.017,40.894,217.285
0.387,-0.773,0.255,70.374,44.189,220.093
0.400,-0.655,0.197,53.162,46.326,220.703
0.446,-0.527,0.140,34.668,45.776,219.360
0.487,-0.431,0.097,20.081,43.823,213.623
0.531,-0.367,0.057,12.146,40.771,201.965
0.583,-0.340,0.016,10.925,38.269,187.683
0.629,-0.333,-0.023,14.160,36.194,171.936
0.666,-0.322,-0.060,17.578,34.180,156.494
0.710,-0.335,-0.106,23.193,31.616,140.198
0.770,-0.358,-0.131,29.236,26.367,124.817
0.754,-0.410,-0.159,30.273,19.897,113.586
0.789,-0.393,-0.112,23.315,10.681,105.347
0.804,-0.431,-0.072,32.227,3.479,97.839
0.812,-0.480,-0.055,48.584,1.282,91.309
0.799,-0.505,-0.072,49.072,1.587,87.463
0.829,-0.528,-0.055,37.842,-0.122,86.304
0.842,-0.514,-0.016,31.372,-2.563,89.722
0.853,-0.515,-0.004,38.513,-3.113,92.407
0.854,-0.497,-0.012,42.542,-1.038,96.985
0.854,-0.432,-0.031,36.682,2.747,103.271
0.874,-0.388,-0.068,30.945,4.822,106.628
0.874,-0.360,-0.080,25.757,2.991,106.262
0.888,-0.365,-0.070,22.888,-0.793,104.614

0.817,1.113,-0.081,-26.611,-13.489,-67.810
0.720,1.192,-0.159,-35.034,-15.869,-135.315
0.615,1.029,-0.207,-48.096,-28.381,-216.675
0.462,0.804,-0.136,-74.524,-53.406,-279.724
0.412,0.509,-0.005,-90.210,-82.764,-327.942
0.354,0.220,0.192,-95.398,-99.670,-358.826
0.275,0.056,0.359,-104.065,-94.055,-369.568
0.210,-0.089,0.406,-99.854,-73.120,-374.146
0.205,-0.238,0.350,-89.111,-45.471,-377.991
0.192,-0.406,0.318,-85.876,-28.809,-382.324
0.219,-0.605,0.330,-87.280,-24.963,-390.198
0.269,-0.839,0.375,-90.454,-26.550,-406.494
0.284,-1.170,0.408,-83.374,-24.475,-427.673
0.321,-1.555,0.389,-75.012,-15.991,-422.607
0.415,-1.927,0.343,-74.219,-5.371,-375.549
0.446,-2.195,0.312,-66.162,-0.977,-311.279
0.504,-2.382,0.287,-45.837,-1.526,-246.643
0.547,-2.454,0.297,-27.344,-4.639,-175.110
0.585,-2.339,0.314,-14.587,-6.958,-97.656
0.589,-2.090,0.357,-6.165,-9.155,-26.794
0.588,-1.837,0.422,1.038,-10.376,23.254
0.585,-1.615,0.480,10.986,-7.324,57.373
0.566,-1.442,0.508,25.024,-0.916,82.153
0.554,-1.316,0.514,40.955,10.071,100.647
0.532,-1.198,0.474,54.382,24.719,115.906
0.542,-1.092,0.420,61.584,36.560,129.639
0.552,-1.023,0.373,65.491,43.030,139.832
0.545,-0.989,0.329,66.040,46.570,146.729
0.552,-0.960,0.285,62.744,49.133,153.076
0.557,-0.917,0.245,57.861,50.293,159.729
0.559,-0.834,0.199,53.711,50.110,167.175
0.572,-0.734,0.160,51.270,49.683,172.363
0.615,-0.648,0.126,51.758,47.058,172.913
0.654,-0.599,0.109,53.650,40.710,168.640
0.678,-0.580,0.111,52.917,33.508,161.926
0.694,-0.576,0.114,52.429,28.198,155.212
0.709,-0.553,0.101,52.063,26.245,152.588
0.691,-0.509,0.081,51.270,26.245,152.832
0.729,-0.463,0.048,52.673,27.161,153.992
0.771,-0.434,0.023,52.063,24.658,153.015
0.757,-0.381,0.055,46.387,18.555,152.405
0.777,-0.367,0.047,54.871,16.296,149.170
0.764,-0.323,0.017,54.321,19.165,146.973
0.801,-0.262,-0.033,47.058,21.973,143.372
0.805,-0.214,-0.059,44.434,18.921,138.184
0.813,-0.145,-0.072,46.631,12.329,132.812
0.848,-0.109,-0.088,49.805,6.714,125.671
0.871,-0.089,-0.085,45.288,2.625,116.516
0.885,-0.090,-0.086,34.607,-0.366,105.835
0.897,-0.108,-0.071,23.621,-2.380,95.337

0.813,1.210,0.098,29.297,5.676,-78.247
0.691,1.305,0.014,20.874,15.381,-159.119
0.475,1.173,-0.091,-9.033,15.320,-249.512
0.296,0.966,-0.172,-38.635,1.343,-316.895
0.122,0.760,-0.196,-59.509,-20.325,-365.540
-0.021,0.590,-0.139,-74.219,-41.321,-403.015
-0.153,0.411,-0.030,-93.750,-63.416,-432.678
-0.241,0.175,0.145,-115.601,-77.759,-457.581
-0.282,-0.098,0.411,-126.343,-86.243,-473.633
-0.208,-0.429,0.645,-114.197,-88.013,-489.075
-0.202,-0.744,0.829,-99.731,-76.721,-512.573
0.008,-1.199,0.763,-81.665,-39.246,-536.987
0.042,-1.853,0.593,-77.576,-4.028,-536.133
0.131,-2.506,0.446,-99.670,20.508,-496.704
0.194,-3.098,0.382,-92.773,27.527,-433.472
0.228,-3.554,0.337,-59.998,27.039,-355.713
0.278,-3.749,0.300,-34.058,27.283,-243.164
0.323,-3.443,0.304,-17.761,26.917,-91.736
0.344,-2.735,0.360,9.094,22.583,46.265
0.338,-2.112,0.437,34.668,18.311,126.770
0.327,-1.724,0.495,45.288,18.677,159.058
0.305,-1.469,0.517,45.898,22.583,173.157
0.300,-1.259,0.507,42.419,28.931,185.425
0.302,-1.097,0.474,40.283,36.621,193.726
0.302,-0.972,0.434,39.856,42.786,197.693
0.334,-0.866,0.385,41.016,47.607,197.021
0.351,-0.784,0.345,42.847,51.147,194.275
0.382,-0.742,0.293,42.725,55.237,191.650
0.377,-0.696,0.247,34.668,61.096,188.538
0.407,-0.643,0.176,27.344,67.200,185.486
0.458,-0.598,0.090,26.245,70.923,181.946
0.490,-0.545,0.010,24.536,69.580,176.758
0.546,-0.502,-0.053,23.254,63.660,168.335
0.591,-0.462,-0.087,23.926,53.528,157.288
0.661,-0.444,-0.094,27.649,39.673,143.799
0.706,-0.482,-0.065,30.884,24.719,128.845
0.746,-0.555,-0.009,30.273,13.184,115.845
0.757,-0.649,0.042,31.128,8.118,107.727
0.753,-0.683,0.071,34.302,8.301,107.544
0.760,-0.657,0.067,39.429,12.024,114.502
0.767,-0.653,0.026,43.518,15.259,121.765
0.795,-0.535,0.050,33.325,14.465,129.456
0.764,-0.458,0.053,39.795,13.672,135.071
0.776,-0.415,0.029,47.302,18.066,133.728
0.819,-0.410,-0.033,49.744,20.569,129.333
0.811,-0.392,-0.047,40.100,16.052,127.380
0.828,-0.318,-0.034,25.146,9.583,126.953
0.844,-0.281,-0.025,27.161,5.005,123.047
0.851,-0.262,-0.022,35.828,2.747,118.286
0.850,-0.255,-0.032,36.255,2.869,113.220

0.716,1.020,0.085,24.536,-26.367,-186.646
0.541,0.943,0.169,8.362,-26.001,-246.094
0.410,0.738,0.172,-15.747,-16.357,-302.612
0.286,0.526,0.154,-52.490,-7.996,-346.436
0.091,0.299,0.160,-84.167,-8.118,-377.869
0.019,0.103,0.162,-105.408,-11.719,-398.437
-0.020,-0.131,0.207,-114.929,-16.663,-412.720
0.031,-0.333,0.342,-123.779,-26.855,-420.532
-0.029,-0.512,0.549,-128.235,-32.043,-423.767
0.122,-0.727,0.660,-116.882,-18.188,-434.631
0.107,-1.015,0.715,-87.524,1.709,-460.144
0.177,-1.388,0.636,-71.472,32.227,-471.558
0.196,-1.820,0.466,-67.383,65.979,-455.444
0.190,-2.261,0.244,-59.570,91.858,-421.814
0.206,-2.730,0.020,-50.476,101.318,-373.779
0.228,-3.080,-0.112,-46.326,88.318,-299.622
0.260,-3.245,-0.140,-37.048,59.021,-200.378
0.292,-3.038,-0.058,-25.635,24.414,-80.994
0.299,-2.578,0.103,-22.400,-1.709,25.574
0.306,-2.145,0.267,-26.062,-11.108,93.994
0.277,-1.831,0.366,-18.250,-7.629,133.240
0.268,-1.573,0.384,-2.625,2.747,158.997
0.289,-1.395,0.364,18.921,14.465,176.331
0.296,-1.230,0.334,39.673,22.522,191.833
0.320,-1.063,0.315,49.255,26.306,206.116
0.339,-0.940,0.292,52.429,30.701,215.820
0.361,-0.830,0.268,55.054,34.607,219.543
0.390,-0.747,0.229,57.739,36.804,219.482
0.417,-0.682,0.183,57.800,38.269,216.797
0.452,-0.616,0.131,52.551,39.368,212.891
0.498,-0.541,0.079,45.288,37.537,207.886
0.534,-0.475,0.047,40.100,31.616,201.355
0.588,-0.423,0.027,36.072,23.560,192.383
0.658,-0.384,0.030,34.668,15.137,180.054
0.691,-0.363,0.047,39.673,6.836,166.260
0.746,-0.376,0.068,45.166,1.221,152.222
0.765,-0.417,0.090,45.776,-0.793,138.306
0.716,-0.494,0.109,40.955,0.610,127.197
0.814,-0.533,0.060,33.325,6.165,124.512
0.815,-0.533,0.079,25.574,7.141,126.526
0.785,-0.480,0.117,32.837,6.531,134.705
0.794,-0.459,0.087,55.176,9.705,138.733
0.792,-0.401,0.046,57.495,13.916,140.198
0.821,-0.334,-0.017,48.157,15.869,140.320
0.841,-0.260,-0.044,35.095,12.512,137.695
0.860,-0.213,-0.040,26.978,5.859,132.507
0.881,-0.217,-0.014,26.184,-0.244,124.756
0.889,-0.245,0.015,24.536,-1.892,117.065
0.887,-0.282,0.024,22.156,-0.610,111.145
0.895,-0.280,0.013,19.287,2.319,109.070

0.763,1.000,0.164,33.020,5.310,-90.393
0.677,1.071,0.108,7.141,13.977,-156.677
0.533,0.955,0.008,-21.118,20.691,-237.183
0.339,0.867,-0.054,-46.692,13.428,-293.762
0.178,0.784,-0.059,-68.420,1.953,-338.562
0.045,0.640,0.001,-95.764,-12.573,-382.568
-0.111,0.373,0.072,-120.056,-23.865,-422.791
-0.204,0.074,0.123,-131.104,-28.931,-456.665
-0.239,-0.190,0.186,-138.855,-32.227,-473.877
-0.217,-0.468,0.286,-134.155,-37.476,-484.497
-0.142,-0.792,0.397,-116.882,-41.992,-505.981
-0.035,-1.245,0.428,-105.286,-36.255,-529.663
0.015,-1.809,0.402,-100.830,-22.644,-532.104
0.111,-2.325,0.374,-93.689,-9.766,-482.849
0.258,-2.752,0.324,-76.965,-2.869,-411.804
0.335,-3.109,0.304,-61.096,2.380,-342.102
0.374,-3.327,0.319,-47.485,2.502,-245.911
0.390,-3.252,0.360,-29.541,-0.244,-128.662
0.414,-2.823,0.400,-11.169,0.244,-12.146
0.413,-2.341,0.429,3.784,4.150,71.533
0.388,-1.993,0.446,22.705,9.033,117.920
0.348,-1.715,0.486,36.438,12.878,146.057
0.342,-1.460,0.516,48.279,18.250,167.908
0.323,-1.273,0.500,63.293,26.672,183.655
0.336,-1.129,0.457,67.383,37.598,194.397
0.329,-1.013,0.410,59.021,45.715,201.538
0.331,-0.902,0.361,44.922,51.514,207.214
0.337,-0.779,0.312,31.067,56.274,212.463
0.369,-0.679,0.255,23.437,58.777,213.745
0.404,-0.599,0.187,17.212,60.913,210.693
0.427,-0.548,0.120,12.207,61.890,202.759
0.470,-0.533,0.047,10.559,60.547,192.505
0.518,-0.517,-0.019,9.216,57.190,182.434
0.560,-0.502,-0.068,10.803,50.903,172.241
0.596,-0.479,-0.099,18.860,41.748,161.682
0.653,-0.456,-0.106,26.367,31.128,151.428
0.694,-0.443,-0.088,31.128,18.860,139.648
0.710,-0.466,-0.056,33.081,8.362,126.648
0.725,-0.528,-0.029,32.898,2.930,116.150
0.780,-0.620,-0.023,32.898,0.122,110.229
0.750,-0.565,0.046,25.391,-1.770,115.784
0.761,-0.511,0.043,38.696,0.793,122.498
0.774,-0.452,0.024,49.194,4.517,123.352
0.778,-0.386,-0.022,49.377,4.883,121.460
0.794,-0.341,-0.028,41.077,1.038,117.981
0.833,-0.302,-0.019,33.447,-2.991,113.770
0.850,-0.286,0.004,29.541,-6.714,108.276
0.859,-0.279,0.020,25.513,-7.141,102.234
0.884,-0.301,0.013,21.423,-4.761,96.069
0.883,-0.330,-0.004,18.433,-3.052,90.271

0.902,0.981,0.136,53.650,40.833,-68.542
0.791,1.232,0.103,25.391,54.504,-119.751
0.676,1.258,0.018,-9.277,59.021,-192.017
0.544,0.984,-0.041,-52.185,49.866,-265.625
0.418,0.648,-0.008,-92.834,28.137,-313.049
0.289,0.396,0.082,-121.643,6.348,-337.830
0.179,0.223,0.179,-137.329,-5.310,-353.271
0.110,0.064,0.244,-142.517,-8.179,-366.089
0.043,-0.086,0.295,-144.592,-7.141,-377.991
0.012,-0.244,0.325,-141.357,-4.578,-391.113
0.043,-0.449,0.350,-133.850,-2.441,-407.532
0.078,-0.694,0.370,-123.535,-2.319,-427.734
0.138,-1.026,0.334,-119.751,1.343,-444.336
0.166,-1.432,0.253,-125.793,10.620,-453.979
0.201,-1.991,0.146,-131.226,17.212,-448.120
0.291,-2.474,0.087,-126.404,12.085,-394.836
0.358,-2.792,0.089,-100.525,-2.930,-323.486
0.404,-2.979,0.150,-68.237,-19.348,-243.347
0.462,-2.987,0.236,-42.786,-32.104,-146.301
0.487,-2.710,0.331,-20.081,-38.635,-45.654
0.483,-2.307,0.408,-2.014,-37.659,35.095
0.454,-2.010,0.451,11.230,-30.090,86.914
0.425,-1.786,0.491,20.935,-20.081,120.850
0.396,-1.547,0.520,27.466,-8.423,149.536
0.381,-1.313,0.509,40.588,4.761,172.729
0.377,-1.104,0.475,52.551,17.700,187.866
0.401,-0.957,0.436,59.692,27.588,194.519
0.417,-0.859,0.385,62.561,35.034,194.641
0.428,-0.777,0.332,57.434,40.344,192.566
0.456,-0.725,0.281,51.636,43.274,189.270
0.497,-0.679,0.234,48.035,43.518,184.814
0.518,-0.668,0.192,46.265,41.138,179.749
0.529,-0.634,0.160,40.466,38.513,175.964
0.580,-0.582,0.122,34.973,36.316,173.950
0.628,-0.549,0.093,34.790,32.166,169.556
0.677,-0.535,0.075,38.025,26.550,162.354
0.700,-0.523,0.080,40.955,19.409,155.334
0.747,-0.533,0.094,41.016,15.747,148.254
0.739,-0.544,0.048,42.114,16.724,142.761
0.773,-0.494,0.068,35.095,14.465,141.663
0.756,-0.473,0.082,40.527,13.794,143.372
0.743,-0.464,0.057,55.725,15.869,140.869
0.749,-0.422,0.006,58.777,18.921,140.625
0.775,-0.383,-0.035,53.772,18.311,140.137
0.781,-0.318,-0.040,45.288,13.123,140.869
0.809,-0.266,-0.032,40.039,7.141,139.771
0.837,-0.232,-0.016,35.583,2.136,136.292
0.844,-0.223,-0.005,32.593,0.061,129.822
0.855,-0.226,-0.020,32.471,0.671,122.498
0.862,-0.225,-0.039,28.870,2.441,117.249

0.948,1.064,0.121,-19.653,23.987,-41.199
0.830,1.150,0.027,-24.780,28.687,-107.666
0.662,1.102,-0.060,-48.340,26.489,-179.382
0.627,0.939,-0.097,-82.581,17.883,-239.258
0.467,0.670,-0.002,-99.670,-1.709,-289.612
0.397,0.493,0.092,-111.145,-14.709,-325.134
0.220,0.335,0.166,-118.225,-18.127,-352.661
0.118,0.193,0.212,-124.512,-15.625,-377.380
0.063,-0.009,0.224,-127.380,-7.812,-400.940
-0.008,-0.247,0.257,-130.310,-3.174,-419.495
-0.007,-0.505,0.286,-134.521,0.244,-430.481
0.032,-0.760,0.256,-130.798,4.944,-442.993
0.068,-1.101,0.167,-121.887,11.169,-458.679
0.126,-1.527,0.078,-119.873,14.954,-452.148
0.247,-1.935,0.064,-124.207,7.751,-408.630
0.385,-2.200,0.100,-118.530,-7.690,-339.539
0.526,-2.453,0.151,-87.219,-23.743,-274.536
0.626,-2.637,0.210,-51.941,-35.095,-213.074
0.652,-2.661,0.271,-29.541,-39.185,-139.587
0.673,-2.488,0.306,-9.216,-35.828,-61.035
0.682,-2.219,0.332,20.386,-31.372,5.981
0.666,-1.979,0.367,51.575,-28.625,55.542
0.635,-1.811,0.416,73.059,-26.794,91.309
0.591,-1.652,0.459,83.618,-21.667,122.009
0.538,-1.459,0.471,86.548,-11.475,152.283
0.513,-1.278,0.447,89.966,0.854,177.551
0.497,-1.112,0.401,93.201,11.719,196.533
0.486,-0.976,0.362,90.393,18.555,210.449
0.478,-0.850,0.327,84.534,22.156,219.299
0.491,-0.732,0.301,75.195,22.888,225.708
0.504,-0.616,0.281,58.472,23.437,227.112
0.529,-0.479,0.255,39.795,26.245,225.647
0.582,-0.349,0.206,32.654,30.945,221.375
0.639,-0.280,0.128,35.461,34.851,211.548
0.676,-0.256,0.051,36.011,36.316,196.655
0.704,-0.266,-0.002,34.485,34.790,179.199
0.733,-0.305,-0.038,39.307,29.358,162.415
0.797,-0.358,-0.057,47.791,21.423,150.269
0.784,-0.406,-0.092,53.528,14.954,143.005
0.791,-0.376,-0.052,49.377,6.592,139.954
0.786,-0.355,-0.033,57.983,2.319,139.587
0.790,-0.343,-0.063,71.838,2.747,137.695
0.797,-0.280,-0.115,63.965,2.197,136.047
0.821,-0.247,-0.103,49.316,-3.967,132.507
0.826,-0.192,-0.069,43.030,-12.268,129.761
0.855,-0.127,-0.038,42.847,-16.907,125.671
0.880,-0.094,-0.029,43.030,-16.968,119.080
0.892,-0.081,-0.034,38.818,-15.625,110.718
0.916,-0.086,-0.050,30.090,-14.648,101.074
0.929,-0.117,-0.043,20.081,-15.442,92.224

0.603,1.416,0.161,-73.120,-11.536,-133.179
0.350,1.514,0.118,-48.279,-2.075,-238.770
0.038,1.248,0.028,-60.608,9.766,-354.797
-0.218,0.833,-0.043,-81.787,11.414,-441.284
-0.411,0.445,-0.042,-79.834,-0.183,-493.164
-0.565,0.094,0.095,-75.378,-17.517,-522.827
-0.616,-0.261,0.263,-79.773,-27.893,-540.222
-0.545,-0.647,0.359,-88.074,-27.893,-555.176
-0.428,-1.109,0.347,-91.370,-22.949,-583.313
-0.344,-1.739,0.316,-102.783,-22.156,-604.858
-0.083,-2.480,0.351,-137.451,-28.259,-548.462
0.071,-2.823,0.502,-177.856,-37.048,-457.581
0.204,-3.165,0.586,-150.024,-36.682,-386.169
0.275,-3.491,0.598,-90.759,-27.649,-304.321
0.324,-3.530,0.605,-59.204,-13.123,-193.848
0.333,-3.227,0.577,-25.452,-1.953,-75.623
0.304,-2.725,0.525,28.503,3.662,21.362
0.310,-2.259,0.495,67.993,5.493,85.571
0.273,-1.947,0.500,85.327,3.296,120.911
0.240,-1.691,0.519,91.736,0.427,145.447
0.236,-1.477,0.527,98.755,0.122,166.077
0.251,-1.303,0.532,108.032,0.610,181.396
0.264,-1.153,0.534,113.525,2.747,194.519
0.270,-1.030,0.528,112.976,6.531,205.688
0.284,-0.937,0.511,102.966,13.611,214.294
0.307,-0.843,0.480,84.351,23.437,222.290
0.325,-0.736,0.429,61.707,34.180,230.835
0.339,-0.623,0.363,42.419,45.349,233.826
0.372,-0.529,0.267,31.555,56.641,231.018
0.414,-0.440,0.159,23.621,64.819,225.098
0.465,-0.360,0.055,15.503,67.017,215.393
0.529,-0.312,-0.017,9.277,62.622,199.829
0.593,-0.321,-0.066,8.057,53.955,178.772
0.653,-0.375,-0.089,8.972,45.044,155.945
0.678,-0.463,-0.083,8.728,35.278,136.658
0.689,-0.533,-0.064,10.315,27.039,123.474
0.697,-0.573,-0.056,16.663,22.827,117.493
0.745,-0.602,-0.076,27.832,21.118,115.784
0.693,-0.606,-0.116,37.292,19.897,116.882
0.746,-0.529,-0.102,32.410,15.137,121.155
0.719,-0.443,-0.078,35.889,9.155,125.427
0.745,-0.396,-0.083,48.645,4.578,123.962
0.788,-0.363,-0.093,43.640,1.892,119.080
0.807,-0.385,-0.072,30.029,-2.502,111.145
0.816,-0.412,-0.033,20.813,-7.812,106.323
0.828,-0.423,-0.009,21.667,-8.850,105.957
0.836,-0.407,-0.005,27.710,-7.324,106.567
0.846,-0.371,-0.018,31.372,-5.188,107.849
0.867,-0.330,-0.036,29.358,-4.272,108.215
0.879,-0.299,-0.035,22.644,-6.836,107.056

0.757,1.021,0.116,-29.480,3.052,-195.679
0.591,0.947,0.103,-37.415,8.179,-253.723
0.383,0.589,0.010,-43.091,17.090,-319.031
0.192,0.239,-0.107,-57.068,18.372,-359.985
0.035,-0.021,-0.197,-74.951,10.620,-377.258
-0.065,-0.175,-0.206,-99.121,-5.493,-380.920
-0.090,-0.275,-0.105,-125.122,-30.029,-378.174
-0.129,-0.355,0.064,-142.639,-54.016,-376.587
-0.097,-0.440,0.232,-157.104,-69.092,-373.474
-0.065,-0.577,0.359,-158.691,-75.073,-378.662
0.062,-0.791,0.440,-138.794,-72.083,-397.644
0.135,-1.146,0.477,-107.483,-65.613,-423.889
0.163,-1.595,0.484,-85.754,-56.274,-428.040
0.224,-2.108,0.455,-76.050,-42.358,-403.198
0.294,-2.640,0.401,-67.017,-32.043,-363.159
0.333,-3.047,0.385,-60.364,-31.921,-304.016
0.373,-3.279,0.410,-48.096,-38.696,-219.299
0.405,-3.172,0.487,-30.396,-47.668,-106.445
0.444,-2.690,0.603,-9.888,-55.298,10.742
0.445,-2.185,0.707,15.381,-55.115,90.271
0.419,-1.862,0.767,36.682,-44.861,129.761
0.414,-1.649,0.788,52.979,-28.198,151.672
0.367,-1.452,0.782,69.092,-9.644,172.241
0.388,-1.268,0.734,84.595,8.423,192.261
0.397,-1.134,0.680,95.276,24.719,207.825
0.396,-1.005,0.624,90.942,37.659,220.215
0.382,-0.893,0.559,80.566,49.744,227.539
0.372,-0.823,0.473,75.684,61.646,229.431
0.367,-0.760,0.365,71.228,70.923,230.286
0.366,-0.673,0.259,58.960,74.951,232.910
0.386,-0.554,0.165,41.748,73.303,235.229
0.432,-0.441,0.097,26.062,67.017,234.192
0.495,-0.367,0.052,18.982,56.396,225.586
0.555,-0.307,0.033,18.860,44.617,212.708
0.601,-0.275,0.023,20.630,34.973,196.899
0.645,-0.286,0.010,21.606,28.198,177.063
0.664,-0.333,0.004,21.973,23.499,156.494
0.703,-0.379,-0.009,25.513,20.264,141.846
0.711,-0.428,-0.017,30.701,16.479,133.362
0.734,-0.444,-0.016,33.752,12.695,129.150
0.735,-0.394,-0.015,38.269,9.155,129.700
0.780,-0.397,-0.038,43.762,4.272,128.601
0.775,-0.291,0.024,34.668,-1.404,128.662
0.813,-0.247,0.035,39.551,-2.625,126.953
0.828,-0.239,0.026,44.067,-0.977,118.652
0.840,-0.226,-0.017,34.485,-0.244,107.544
0.849,-0.250,-0.002,20.447,-3.174,96.375
0.888,-0.275,0.022,15.259,-6.775,90.454
0.901,-0.292,0.052,15.198,-9.216,87.524
0.907,-0.271,0.080,9.949,-8.484,87.891

0.930,0.844,0.175,9.277,28.137,-7.324
0.825,1.039,0.166,26.428,39.795,-43.213
0.632,1.159,0.154,11.414,48.401,-96.680
0.584,1.099,-0.018,-39.307,51.453,-172.974
0.499,0.801,-0.113,-93.323,39.490,-248.657
0.389,0.473,-0.083,-117.615,8.118,-294.067
0.353,0.280,0.016,-145.874,-20.508,-314.697
0.285,0.164,0.106,-172.852,-37.292,-323.303
0.250,0.050,0.153,-182.495,-43.884,-329.895
0.253,-0.057,0.217,-182.007,-49.255,-336.243
0.274,-0.198,0.334,-174.011,-57.556,-343.506
0.332,-0.399,0.491,-157.532,-64.514,-355.957
0.407,-0.647,0.624,-128.601,-63.904,-379.822
0.489,-0.991,0.666,-98.450,-50.598,-408.691
0.504,-1.405,0.659,-83.313,-29.175,-415.955
0.523,-1.846,0.578,-72.571,-5.249,-389.771
0.541,-2.182,0.432,-54.871,16.724,-338.379
0.552,-2.422,0.294,-42.908,30.029,-274.475
0.552,-2.557,0.216,-37.537,29.663,-203.552
0.568,-2.514,0.221,-25.818,15.991,-120.728
0.594,-2.175,0.323,-13.306,-1.282,-32.898
0.604,-1.767,0.463,-3.906,-10.376,30.701
0.612,-1.495,0.554,10.803,-7.751,62.988
0.588,-1.339,0.593,27.466,4.578,77.576
0.553,-1.216,0.546,41.077,25.024,86.853
0.532,-1.122,0.441,52.795,45.044,95.398
0.527,-1.054,0.333,61.523,56.763,103.333
0.524,-1.006,0.265,64.880,59.265,110.535
0.519,-0.986,0.224,64.697,56.641,116.455
0.537,-0.943,0.199,60.669,52.368,123.047
0.569,-0.937,0.180,56.396,48.157,127.686
0.598,-0.991,0.156,56.213,45.166,128.296
0.576,-0.974,0.134,53.589,43.701,134.155
0.609,-0.903,0.110,50.110,41.748,144.775
0.631,-0.904,0.106,50.293,40.344,149.292
0.638,-0.874,0.094,58.411,35.645,153.931
0.594,-0.799,0.100,67.871,28.137,165.039
0.713,-0.714,0.076,73.975,21.606,175.354
0.698,-0.593,0.108,66.711,14.587,180.786
0.681,-0.467,0.130,58.716,12.024,185.242
0.706,-0.384,0.098,63.416,14.771,183.472
0.716,-0.305,0.068,60.486,15.747,179.443
0.738,-0.273,0.023,60.669,13.855,171.265
0.744,-0.250,0.004,57.617,9.277,163.391
0.769,-0.217,-0.004,52.307,5.066,158.325
0.787,-0.178,-0.011,48.035,2.686,153.259
0.812,-0.161,-0.027,45.166,2.014,146.973
0.841,-0.153,-0.059,41.992,2.380,138.428
0.843,-0.146,-0.073,37.109,0.977,129.822
0.851,-0.139,-0.078,35.583,-1.099,123.901

0.819,1.096,0.087,-64.514,-22.278,-77.026
0.754,1.272,0.094,-76.538,-22.034,-125.977
0.624,1.320,0.126,-93.689,-23.254,-196.228
0.478,1.122,0.145,-106.995,-26.306,-269.226
0.315,0.894,0.181,-115.295,-30.762,-325.500
0.163,0.702,0.194,-119.263,-33.630,-364.868
0.027,0.505,0.186,-118.652,-34.546,-396.545
-0.074,0.277,0.216,-113.708,-37.598,-423.828
-0.137,-0.007,0.306,-103.149,-44.495,-445.618
-0.109,-0.333,0.411,-92.773,-51.208,-465.210
-0.024,-0.644,0.505,-93.323,-52.185,-485.779
0.057,-1.027,0.566,-94.116,-48.645,-504.333
0.151,-1.522,0.557,-89.233,-40.405,-509.949
0.251,-2.056,0.497,-99.365,-25.940,-476.013
0.316,-2.535,0.427,-103.333,-11.963,-420.837
0.374,-3.004,0.372,-84.534,-8.057,-359.680
0.429,-3.274,0.375,-66.162,-10.132,-273.621
0.462,-3.211,0.428,-48.889,-14.709,-151.855
0.487,-2.707,0.479,-20.691,-17.822,-24.719
0.497,-2.128,0.525,0.244,-16.907,65.308
0.494,-1.735,0.595,10.803,-13.794,108.154
0.479,-1.559,0.671,29.053,-8.911,125.183
0.439,-1.464,0.702,47.363,4.456,136.902
0.404,-1.361,0.668,57.861,26.489,152.832
0.390,-1.260,0.588,66.223,48.279,169.861
0.387,-1.158,0.497,72.144,64.331,185.059
0.384,-1.069,0.421,77.393,72.266,196.838
0.383,-0.978,0.342,82.031,75.073,205.627
0.384,-0.870,0.264,81.360,74.341,212.585
0.410,-0.758,0.179,72.998,71.228,217.285
0.437,-0.646,0.100,63.171,64.575,218.933
0.484,-0.545,0.036,55.176,53.650,217.102
0.524,-0.456,0.012,51.758,39.124,211.243
0.590,-0.395,0.026,53.223,22.339,201.172
0.642,-0.362,0.072,57.617,7.019,187.683
0.688,-0.345,0.114,58.533,-0.183,175.171
0.634,-0.356,0.141,58.289,0.793,162.537
0.764,-0.345,0.075,58.777,6.104,153.381
0.776,-0.300,0.071,54.504,5.737,147.522
0.768,-0.234,0.090,54.932,4.211,145.630
0.802,-0.232,0.061,69.214,4.272,139.404
0.805,-0.219,0.040,63.782,4.089,130.615
0.839,-0.225,0.018,49.744,1.892,121.704
0.853,-0.237,0.036,38.574,-3.235,115.906
0.865,-0.217,0.055,36.438,-6.836,114.014
0.887,-0.179,0.054,39.307,-7.141,113.647
0.897,-0.150,0.045,41.016,-5.859,112.061
0.904,-0.106,0.031,37.903,-4.150,108.337
0.920,-0.068,0.024,31.494,-5.249,103.882
0.929,-0.071,0.050,24.475,-8.240,97.412

0.759,1.423,0.005,-74.829,-43.762,-66.223
0.612,1.679,0.072,-69.275,-51.086,-161.987
0.371,1.395,0.154,-78.674,-50.354,-278.503
0.135,0.928,0.197,-93.018,-46.570,-364.258
-0.065,0.641,0.203,-93.140,-44.373,-413.208
-0.221,0.447,0.200,-87.585,-41.504,-445.007
-0.370,0.210,0.248,-83.374,-42.542,-473.511
-0.499,-0.024,0.356,-90.393,-43.152,-497.253
-0.486,-0.316,0.469,-96.252,-44.128,-518.066
-0.391,-0.640,0.574,-94.849,-47.791,-545.227
-0.288,-1.089,0.627,-90.149,-49.255,-576.599
-0.172,-1.743,0.590,-101.379,-40.771,-593.018
-0.071,-2.557,0.517,-125.061,-26.794,-557.068
0.103,-3.113,0.495,-147.095,-19.165,-479.187
0.219,-3.676,0.505,-124.084,-25.391,-405.334
0.309,-3.987,0.561,-80.261,-35.156,-301.208
0.359,-3.852,0.649,-42.908,-39.673,-146.301
0.387,-3.123,0.708,-0.305,-38.391,13.855
0.396,-2.353,0.711,43.579,-30.518,118.469
0.385,-1.864,0.711,70.129,-20.996,163.147
0.359,-1.569,0.724,85.327,-14.587,181.091
0.349,-1.343,0.725,98.267,-7.202,195.496
0.341,-1.164,0.700,111.023,2.502,209.900
0.330,-0.990,0.660,118.286,14.160,221.985
0.358,-0.878,0.597,119.385,25.940,229.919
0.362,-0.793,0.534,111.511,34.973,233.887
0.375,-0.718,0.477,98.206,41.687,237.366
0.392,-0.650,0.422,86.975,47.852,239.197
0.414,-0.585,0.353,81.970,53.101,237.793
0.435,-0.513,0.264,78.247,56.763,235.352
0.468,-0.433,0.170,70.862,57.556,230.835
0.523,-0.364,0.089,61.340,53.345,224.243
0.581,-0.325,0.036,52.490,43.823,213.928
0.618,-0.295,0.020,46.265,31.799,201.660
0.673,-0.284,0.019,45.105,19.165,188.721
0.727,-0.336,0.038,46.265,7.324,174.561
0.736,-0.421,0.080,43.945,0.610,163.635
0.731,-0.460,0.103,42.175,0.671,159.973
0.731,-0.433,0.086,46.021,4.761,162.964
0.722,-0.344,0.063,48.828,7.996,167.664
0.733,-0.263,0.027,51.636,7.874,169.434
0.797,-0.208,-0.006,49.072,3.662,167.542
0.792,-0.117,0.042,32.776,-2.319,165.771
0.829,-0.112,0.041,37.048,-4.456,158.081
0.826,-0.103,0.023,37.842,-3.113,147.095
0.862,-0.090,-0.008,29.541,-1.709,136.292
0.867,-0.087,-0.003,23.926,-5.188,127.563
0.886,-0.063,0.016,22.522,-11.658,121.521
0.913,-0.065,0.044,22.400,-15.930,115.356
0.926,-0.077,0.077,21.667,-16.785,108.337

0.943,0.762,0.294,-9.277,20.996,-6.165
0.900,1.016,0.286,-10.376,31.921,-25.818
0.825,1.231,0.233,-17.822,46.631,-68.726
0.727,1.305,0.132,-32.776,58.350,-140.198
0.559,1.152,0.043,-54.382,59.937,-222.534
0.412,0.819,-0.017,-78.003,51.331,-291.199
0.291,0.530,-0.018,-98.022,35.278,-335.510
0.205,0.278,0.019,-111.755,18.616,-362.427
0.153,0.044,0.055,-121.338,6.042,-380.554
0.164,-0.208,0.132,-125.061,-4.883,-392.822
0.185,-0.458,0.237,-120.972,-17.029,-405.884
0.203,-0.655,0.299,-114.624,-17.151,-420.227
0.241,-0.892,0.276,-102.600,-5.981,-425.720
0.255,-1.146,0.237,-88.867,4.639,-405.457
0.360,-1.387,0.185,-79.407,11.292,-375.549
0.401,-1.657,0.148,-66.833,10.376,-350.891
0.428,-1.958,0.133,-67.017,9.094,-321.167
0.468,-2.224,0.141,-70.190,7.019,-277.649
0.513,-2.432,0.177,-58.167,-0.183,-221.436
0.543,-2.541,0.232,-34.119,-10.559,-155.823
0.546,-2.471,0.314,-10.986,-17.822,-82.581
0.552,-2.210,0.378,9.338,-16.541,-9.399
0.549,-1.958,0.391,30.701,-9.094,44.617
0.536,-1.790,0.388,44.556,-1.343,80.566
0.501,-1.669,0.390,51.819,4.456,108.398
0.466,-1.511,0.386,56.458,10.071,135.376
0.453,-1.328,0.373,61.340,16.052,161.133
0.455,-1.147,0.354,65.125,20.081,180.542
0.478,-1.004,0.334,65.002,22.278,191.162
0.500,-0.909,0.308,61.523,23.926,196.472
0.508,-0.830,0.276,53.284,26.306,199.707
0.520,-0.742,0.227,43.640,28.992,201.782
0.545,-0.664,0.165,38.452,30.884,202.881
0.571,-0.602,0.102,37.476,30.151,201.660
0.599,-0.548,0.055,36.743,26.550,198.730
0.635,-0.517,0.015,38.025,20.813,194.153
0.664,-0.504,-0.008,39.612,13.855,187.927
0.633,-0.467,-0.007,39.978,6.958,182.434
0.718,-0.407,-0.033,44.067,2.686,179.871
0.754,-0.347,-0.035,47.791,-2.625,175.720
0.731,-0.260,0.009,47.363,-8.972,172.913
0.757,-0.238,0.003,61.584,-11.414,165.710
0.762,-0.191,-0.012,63.049,-11.169,157.715
0.803,-0.187,-0.034,53.772,-11.780,148.499
0.816,-0.204,-0.009,42.603,-16.418,140.259
0.828,-0.179,0.012,37.170,-20.081,137.146
0.842,-0.126,0.021,37.476,-20.630,136.292
0.873,-0.072,0.013,37.720,-18.860,133.728
0.895,-0.047,0.001,36.743,-18.433,127.502
0.901,-0.015,0.006,30.334,-19.592,120.361

0.914,0.679,0.300,4.639,6.775,-5.920
0.906,1.087,0.317,7.507,18.066,-9.583
0.870,1.497,0.292,-3.723,32.532,-50.293
0.645,1.559,0.138,-22.888,48.279,-150.452
0.482,1.334,-0.065,-63.599,52.490,-254.395
0.302,0.929,-0.145,-98.633,32.104,-326.660
0.103,0.573,-0.102,-113.831,0.671,-374.634
0.002,0.421,-0.042,-131.531,-23.010,-397.705
-0.085,0.241,0.029,-147.644,-40.344,-414.001
-0.111,-0.048,0.164,-163.269,-56.458,-429.504
-0.050,-0.358,0.396,-177.185,-76.172,-445.312
0.042,-0.684,0.618,-167.786,-87.402,-465.332
0.178,-1.104,0.762,-149.170,-80.322,-490.906
0.275,-1.765,0.736,-125.671,-54.199,-499.329
0.356,-2.340,0.611,-114.380,-18.921,-443.115
0.464,-2.667,0.431,-101.624,9.155,-354.126
0.543,-2.981,0.301,-73.364,19.348,-274.658
0.570,-3.105,0.285,-52.124,12.207,-184.631
0.604,-2.846,0.356,-40.771,-1.953,-71.838
0.625,-2.404,0.485,-23.987,-12.329,26.855
0.613,-1.979,0.595,-3.052,-11.353,90.454
0.582,-1.674,0.648,22.644,-1.282,126.831
0.546,-1.435,0.648,45.532,13.611,149.475
0.517,-1.252,0.594,65.979,30.029,166.321
0.484,-1.151,0.532,85.938,42.664,178.833
0.466,-1.068,0.483,98.145,50.232,190.125
0.438,-0.946,0.422,101.257,54.749,202.209
0.423,-0.784,0.348,97.351,57.739,212.646
0.442,-0.635,0.272,91.797,58.105,216.736
0.496,-0.563,0.193,84.351,54.871,212.830
0.531,-0.552,0.136,71.411,47.668,203.796
0.560,-0.544,0.101,53.711,37.903,196.167
0.595,-0.522,0.078,43.518,28.931,191.162
0.630,-0.506,0.054,47.241,20.447,187.866
0.671,-0.474,0.053,54.199,10.864,185.974
0.713,-0.435,0.081,60.059,-0.244,184.021
0.763,-0.400,0.134,65.979,-9.338,181.030
0.797,-0.408,0.144,70.007,-14.343,178.284
0.768,-0.276,0.226,59.814,-16.907,178.467
0.791,-0.181,0.218,67.505,-10.803,176.575
0.788,-0.095,0.167,77.332,-1.831,170.349
0.826,-0.023,0.094,69.702,2.502,160.950
0.846,-0.033,0.066,57.190,0.061,145.996
0.854,-0.025,0.069,42.786,-4.822,134.155
0.860,-0.016,0.074,35.034,-7.874,125.122
0.868,0.015,0.063,33.630,-7.019,117.065
0.902,0.018,0.037,35.095,-5.920,108.154
0.923,-0.006,0.034,33.875,-8.179,98.083
0.939,-0.039,0.050,27.527,-13.672,89.355
0.944,-0.066,0.093,21.484,-17.883,83.374

0.893,0.872,0.316,-7.751,9.949,7.629
0.847,1.306,0.326,-1.587,23.743,-13.062
0.763,1.534,0.191,16.174,44.678,-95.154
0.618,1.349,-0.024,-5.066,58.411,-199.463
0.462,0.959,-0.167,-52.917,47.852,-280.029
0.315,0.559,-0.186,-72.754,17.090,-329.529
0.224,0.338,-0.137,-84.656,-14.587,-351.440
0.164,0.188,-0.047,-103.699,-37.048,-360.046
0.133,0.013,0.068,-116.272,-54.077,-368.103
0.162,-0.185,0.246,-130.981,-68.787,-376.892
0.228,-0.434,0.470,-138.550,-80.566,-387.878
0.336,-0.707,0.650,-128.540,-81.177,-407.959
0.397,-1.077,0.728,-103.699,-64.392,-435.364
0.469,-1.576,0.685,-79.163,-34.180,-436.584
0.523,-1.972,0.571,-58.350,-6.409,-387.756
0.565,-2.264,0.422,-38.208,15.320,-319.031
0.564,-2.501,0.308,-22.339,26.489,-255.432
0.601,-2.628,0.248,-17.395,25.574,-180.298
0.625,-2.585,0.296,-18.372,15.015,-93.445
0.652,-2.320,0.422,-12.268,3.540,-8.484
0.657,-2.040,0.534,8.179,1.892,57.556
0.639,-1.844,0.587,29.053,13.550,100.525
0.561,-1.680,0.577,44.434,32.043,133.118
0.516,-1.466,0.515,58.167,49.988,165.771
0.474,-1.228,0.432,69.702,62.439,192.383
0.454,-1.018,0.340,75.562,68.298,208.984
0.430,-0.849,0.259,74.402,68.420,217.651
0.443,-0.694,0.194,67.383,65.491,221.069
0.478,-0.553,0.128,62.866,60.181,219.666
0.519,-0.448,0.076,58.533,50.293,214.966
0.555,-0.379,0.051,50.598,38.391,204.834
0.604,-0.340,0.041,43.335,26.978,190.674
0.655,-0.339,0.042,39.917,17.395,176.392
0.702,-0.347,0.057,37.903,9.766,164.062
0.768,-0.369,0.080,37.109,4.578,153.809
0.793,-0.412,0.106,40.405,1.648,145.325
0.812,-0.420,0.115,47.424,1.221,140.442
0.813,-0.395,0.101,53.894,3.479,139.404
0.847,-0.376,0.027,54.138,6.714,138.306
0.858,-0.288,0.056,39.429,2.991,137.451
0.832,-0.210,0.078,40.649,-1.282,139.160
0.834,-0.176,0.046,56.213,-1.526,135.193
0.846,-0.118,0.017,54.932,-2.869,129.150
0.887,-0.097,0.001,46.875,-7.019,122.925
0.886,-0.044,0.036,34.058,-13.916,117.432
0.898,0.031,0.072,26.306,-17.944,112.366
0.926,0.052,0.087,27.527,-17.456,104.370
0.940,0.029,0.095,27.161,-15.137,94.177
0.957,-0.014,0.094,20.691,-12.756,84.839
0.954,-0.056,0.098,12.878,-11.719,77.942

0.832,1.020,0.108,1.587,4.150,-60.059
0.765,1.062,0.078,8.850,12.451,-136.719
0.678,0.931,0.071,-10.803,17.944,-209.595
0.537,0.694,0.080,-33.447,20.752,-263.428
0.425,0.534,0.090,-46.326,23.865,-299.866
0.297,0.441,0.089,-59.814,23.315,-324.951
0.152,0.329,0.089,-79.956,18.311,-348.694
0.048,0.182,0.114,-101.379,8.789,-373.474
-0.026,-0.037,0.174,-115.234,-2.502,-396.545
-0.069,-0.291,0.248,-118.469,-11.292,-415.100
-0.016,-0.541,0.308,-122.253,-17.578,-429.932
0.068,-0.783,0.397,-135.132,-26.733,-442.993
0.184,-1.085,0.500,-135.498,-32.776,-461.548
0.256,-1.540,0.503,-105.530,-28.870,-484.131
0.308,-2.112,0.438,-84.045,-14.526,-473.328
0.375,-2.564,0.346,-86.243,0.061,-431.030
0.382,-2.966,0.290,-77.576,1.648,-378.479
0.382,-3.346,0.318,-47.729,-13.977,-308.411
0.401,-3.564,0.422,-20.386,-30.334,-199.890
0.409,-3.418,0.570,4.700,-36.438,-52.002
0.394,-2.778,0.670,42.297,-30.457,100.403
0.361,-2.143,0.717,75.134,-15.686,200.012
0.330,-1.683,0.748,83.191,-0.122,248.291
0.308,-1.345,0.751,81.604,16.724,274.719
0.286,-1.060,0.711,83.557,36.316,293.457
0.289,-0.824,0.605,87.097,56.946,306.946
0.294,-0.612,0.467,86.426,73.914,313.538
0.313,-0.444,0.323,83.130,83.191,313.782
0.337,-0.321,0.196,80.017,82.886,307.312
0.371,-0.221,0.091,76.416,74.402,296.814
0.438,-0.129,0.012,72.693,61.462,285.706
0.503,-0.065,-0.035,70.068,46.265,270.325
0.561,-0.037,-0.070,67.688,31.616,249.756
0.610,-0.040,-0.103,62.256,20.508,228.271
0.694,-0.052,-0.134,57.129,11.475,205.811
0.737,-0.067,-0.130,52.490,0.671,184.692
0.777,-0.080,-0.088,48.279,-10.376,164.368
0.819,-0.121,-0.028,45.227,-19.287,146.118
0.844,-0.201,0.030,39.612,-22.888,130.432
0.894,-0.223,0.067,30.945,-20.569,121.887
0.888,-0.268,0.044,24.353,-14.771,118.652
0.884,-0.180,0.077,11.169,-11.536,119.995
0.894,-0.111,0.064,18.066,-8.606,121.399
0.901,-0.098,0.025,32.837,-5.859,114.929
0.896,-0.133,-0.005,32.898,-6.897,106.689
0.932,-0.093,0.008,13.428,-11.047,102.478
0.937,-0.046,0.043,4.822,-16.174,99.304
0.958,-0.042,0.068,9.521,-18.188,90.820
0.967,-0.062,0.088,14.343,-17.944,81.970
0.967,-0.083,0.099,12.939,-16.724,74.707

0.929,1.339,0.301,-1.953,8.423,-30.701
0.824,1.659,0.316,1.038,12.512,-130.615
0.626,1.291,0.280,-27.039,22.888,-261.780
0.466,0.770,0.237,-75.439,23.254,-347.351
0.354,0.296,0.194,-88.562,15.137,-389.343
0.287,-0.067,0.127,-86.792,11.902,-406.921
0.231,-0.308,0.063,-90.515,12.512,-408.020
0.181,-0.454,0.028,-101.624,10.742,-400.330
0.160,-0.590,0.047,-111.084,4.456,-388.367
0.168,-0.747,0.083,-104.309,-4.211,-379.944
0.210,-0.941,0.104,-96.985,-10.010,-368.713
0.281,-1.160,0.110,-93.994,-11.963,-356.140
0.342,-1.466,0.097,-85.510,-13.916,-348.755
0.402,-1.870,0.104,-74.036,-17.761,-335.510
0.497,-2.288,0.144,-62.500,-23.560,-289.612
0.574,-2.529,0.224,-42.236,-30.884,-217.407
0.633,-2.623,0.300,-16.174,-32.471,-140.930
0.664,-2.523,0.371,1.648,-26.917,-60.547
0.681,-2.300,0.428,17.944,-17.883,14.893
0.670,-2.045,0.491,33.936,-9.644,74.280
0.640,-1.805,0.549,46.997,-0.916,118.958
0.599,-1.571,0.579,57.007,11.414,154.480
0.553,-1.347,0.563,65.247,27.344,184.570
0.540,-1.161,0.503,74.036,41.809,207.703
0.505,-0.995,0.443,78.674,50.476,223.938
0.486,-0.820,0.380,75.562,54.382,236.450
0.500,-0.658,0.310,69.336,54.138,243.713
0.518,-0.520,0.234,62.256,51.697,245.117
0.538,-0.420,0.159,52.979,47.363,242.493
0.577,-0.365,0.101,41.138,42.175,235.779
0.615,-0.331,0.056,32.104,35.339,226.074
0.643,-0.294,0.029,25.391,27.344,216.492
0.671,-0.232,0.012,18.982,20.386,207.642
0.711,-0.171,-0.007,16.968,15.686,198.181
0.748,-0.149,-0.021,18.860,10.620,186.157
0.780,-0.138,-0.015,18.921,6.165,171.997
0.802,-0.145,-0.014,21.912,2.258,158.813
0.858,-0.126,-0.003,24.048,0.183,149.048
0.868,-0.141,-0.039,26.672,0.671,139.404
0.849,-0.076,0.003,21.301,-3.235,131.165
0.890,-0.028,0.005,25.208,-5.249,126.709
0.897,-0.045,-0.010,33.813,-3.601,117.126
0.891,-0.052,-0.031,27.344,-3.052,104.492
0.915,-0.074,-0.038,20.447,-4.822,95.398
0.919,-0.042,-0.015,14.709,-9.033,92.041
0.939,-0.022,0.003,14.832,-11.292,86.792
0.952,-0.016,0.022,17.578,-12.024,80.200
0.967,-0.025,0.042,17.212,-12.817,73.486
0.978,-0.037,0.059,11.169,-12.939,66.956
0.986,-0.072,0.072,6.042,-12.024,60.608

0.865,1.173,0.087,10.864,-20.142,-36.926
0.800,1.418,0.120,15.564,-17.517,-114.685
0.643,1.435,0.126,2.502,-10.071,-212.524
0.417,1.151,0.147,-29.053,-3.723,-307.556
0.218,0.660,0.102,-33.630,0.183,-379.639
0.085,0.268,0.039,-31.494,3.052,-417.664
-0.034,-0.027,0.005,-36.499,0.427,-432.556
-0.093,-0.217,0.039,-48.645,-7.141,-435.181
-0.100,-0.397,0.114,-63.782,-17.639,-431.396
-0.050,-0.626,0.207,-81.665,-26.733,-429.260
0.050,-0.884,0.307,-102.966,-33.447,-435.669
0.183,-1.184,0.428,-118.408,-40.527,-445.312
0.280,-1.582,0.489,-113.098,-39.551,-445.190
0.407,-2.074,0.489,-105.469,-28.320,-408.081
0.489,-2.546,0.456,-87.280,-18.311,-354.248
0.532,-2.975,0.410,-56.274,-10.193,-293.396
0.565,-3.259,0.393,-32.532,-5.615,-212.708
0.581,-3.246,0.421,-11.353,-6.836,-103.455
0.589,-2.861,0.494,9.888,-10.559,17.578
0.559,-2.344,0.593,22.827,-9.644,112.488
0.516,-1.935,0.665,35.095,-2.930,169.067
0.457,-1.598,0.692,51.208,7.751,205.261
0.423,-1.268,0.674,62.805,21.301,232.910
0.401,-0.984,0.616,70.435,35.034,250.122
0.399,-0.757,0.529,71.350,47.913,257.263
0.397,-0.585,0.430,65.857,57.678,257.629
0.416,-0.460,0.331,58.594,62.866,252.502
0.429,-0.363,0.240,51.086,62.988,244.934
0.460,-0.291,0.152,41.809,60.181,235.291
0.503,-0.242,0.075,32.593,54.443,222.046
0.566,-0.225,0.013,24.170,47.424,206.970
0.615,-0.252,-0.021,16.174,39.185,189.941
0.672,-0.303,-0.035,12.573,30.212,172.974
0.722,-0.334,-0.036,16.113,21.362,161.926
0.760,-0.331,-0.013,18.799,13.428,154.846
0.786,-0.332,0.021,24.536,6.165,146.484
0.820,-0.334,0.054,33.081,1.770,138.245
0.836,-0.355,0.073,36.865,-0.427,131.592
0.828,-0.373,0.090,36.499,-0.977,126.038
0.866,-0.323,0.081,32.410,1.648,124.939
0.875,-0.296,0.038,25.024,4.150,124.756
0.845,-0.172,0.076,7.141,2.563,125.183
0.873,-0.139,0.042,13.916,2.808,123.169
0.856,-0.151,0.028,18.799,4.089,114.868
0.890,-0.158,-0.003,17.700,2.136,106.567
0.898,-0.178,0.011,11.353,-2.808,101.929
0.909,-0.179,0.047,6.042,-8.545,99.060
0.920,-0.172,0.070,6.592,-10.376,97.412
0.930,-0.162,0.074,8.606,-8.789,96.130
0.937,-0.163,0.063,10.132,-7.141,93.384

0.908,0.977,0.270,58.228,-1.343,-29.297
0.923,1.420,0.335,81.726,9.705,-61.890
0.756,1.670,0.307,105.347,36.621,-155.457
0.529,1.289,0.066,99.548,73.181,-280.823
0.326,0.799,-0.224,52.124,90.210,-359.924
0.173,0.370,-0.356,11.963,73.975,-395.935
0.074,0.010,-0.329,-15.869,36.255,-412.048
0.024,-0.236,-0.230,-46.997,1.587,-413.513
-0.026,-0.403,-0.087,-83.496,-21.545,-405.945
0.061,-0.586,0.054,-114.807,-36.438,-397.705
0.222,-0.821,0.207,-133.484,-52.185,-396.301
0.333,-1.078,0.395,-135.193,-68.542,-403.931
0.453,-1.474,0.516,-118.225,-68.726,-406.311
0.536,-1.964,0.578,-95.276,-52.917,-381.714
0.587,-2.337,0.575,-65.857,-30.273,-322.021
0.634,-2.610,0.488,-34.973,-6.165,-252.380
0.658,-2.751,0.404,-15.869,10.803,-173.096
0.660,-2.694,0.393,-6.226,13.733,-81.543
0.664,-2.415,0.461,-0.122,6.897,10.254
0.642,-2.088,0.559,-0.610,3.479,83.984
0.608,-1.782,0.631,-6.592,10.193,133.728
0.580,-1.504,0.651,-4.395,23.132,169.434
0.547,-1.253,0.610,4.089,38.635,194.885
0.531,-1.050,0.531,13.489,53.223,210.571
0.530,-0.896,0.441,17.822,63.538,218.628
0.509,-0.759,0.356,12.878,69.031,223.022
0.502,-0.630,0.275,4.639,71.289,223.267
0.513,-0.524,0.178,-0.488,72.021,221.008
0.541,-0.470,0.081,-2.258,70.251,215.210
0.572,-0.442,0.009,-4.578,63.293,206.177
0.609,-0.404,-0.031,-8.362,54.260,197.937
0.641,-0.376,-0.053,-6.653,44.983,189.697
0.669,-0.347,-0.070,0.183,35.828,180.969
0.717,-0.331,-0.092,8.728,26.428,172.058
0.740,-0.315,-0.097,15.442,16.235,164.062
0.763,-0.274,-0.071,19.104,5.005,158.264
0.718,-0.253,-0.018,22.888,-4.395,151.733
0.813,-0.238,0.004,25.146,-9.949,145.569
0.850,-0.222,0.053,19.897,-14.893,141.235
0.830,-0.153,0.121,14.099,-16.479,139.038
0.860,-0.159,0.110,33.936,-11.414,131.836
0.853,-0.129,0.080,39.734,-6.653,127.686
0.899,-0.091,0.054,25.330,-4.578,123.352
0.897,-0.055,0.070,12.024,-7.874,117.981
0.916,-0.021,0.099,7.751,-12.878,112.915
0.931,0.011,0.129,7.935,-14.893,106.567
0.938,0.043,0.150,8.972,-14.404,99.670
0.962,0.054,0.153,10.010,-11.841,91.187
0.982,0.033,0.151,8.362,-9.827,80.872
0.983,0.010,0.166,3.723,-9.827,72.144

0.859,1.040,0.241,-17.639,-24.292,-29.114
0.852,1.472,0.262,-20.447,-15.991,-53.406
0.730,1.707,0.208,-23.621,-3.967,-139.648
0.529,1.376,0.127,-31.921,2.625,-257.385
0.318,0.891,0.084,-55.298,-1.648,-336.548
0.169,0.548,0.116,-66.589,-14.832,-379.150
0.068,0.324,0.159,-73.120,-25.940,-399.841
-0.021,0.131,0.190,-80.872,-30.518,-413.696
-0.084,-0.064,0.235,-90.332,-33.875,-424.683
-0.044,-0.310,0.336,-100.037,-39.978,-433.472
0.098,-0.620,0.511,-105.164,-52.734,-448.669
0.268,-0.999,0.697,-98.633,-63.293,-478.455
0.321,-1.519,0.798,-81.177,-55.847,-498.779
0.409,-2.168,0.749,-68.359,-26.428,-460.754
0.516,-2.545,0.600,-52.612,5.371,-380.737
0.545,-2.903,0.434,-25.024,27.222,-304.749
0.568,-3.151,0.319,-11.658,34.973,-220.581
0.597,-3.111,0.312,-12.085,28.015,-109.619
0.617,-2.747,0.405,0.488,13.977,8.240
0.598,-2.283,0.536,18.188,5.188,100.769
0.548,-1.882,0.637,31.189,8.728,158.325
0.487,-1.539,0.654,46.204,22.217,195.618
0.432,-1.246,0.597,62.012,40.588,220.825
0.392,-1.009,0.512,73.059,55.725,235.413
0.383,-0.805,0.419,77.942,64.880,242.676
0.364,-0.608,0.326,77.393,68.909,243.958
0.399,-0.445,0.235,73.914,67.566,239.563
0.459,-0.340,0.168,68.909,60.425,229.004
0.501,-0.281,0.126,58.655,50.415,213.623
0.548,-0.253,0.095,46.875,41.382,197.632
0.601,-0.241,0.069,38.086,33.142,181.152
0.661,-0.267,0.040,35.889,25.330,163.940
0.713,-0.321,0.033,36.987,16.296,148.254
0.758,-0.359,0.050,38.574,6.897,136.963
0.789,-0.365,0.083,38.818,0.061,130.127
0.824,-0.369,0.117,39.368,-3.052,124.634
0.846,-0.372,0.144,41.077,-4.395,120.056
0.920,-0.370,0.158,40.283,-3.967,116.821
0.899,-0.376,0.140,36.194,-1.831,115.601
0.881,-0.276,0.195,25.146,-1.709,117.554
0.872,-0.215,0.172,35.889,1.465,119.019
0.866,-0.163,0.116,42.542,8.484,114.807
0.887,-0.145,0.059,39.673,10.620,107.300
0.898,-0.179,0.042,37.598,4.883,99.976
0.898,-0.165,0.078,27.954,-3.113,98.022
0.905,-0.167,0.120,24.597,-7.507,96.741
0.916,-0.141,0.126,25.696,-6.348,96.985
0.927,-0.118,0.109,24.170,-2.625,96.375
0.934,-0.105,0.092,23.071,-1.160,93.445
0.945,-0.083,0.089,20.813,-2.625,90.820

0.849,1.356,0.107,-4.761,14.038,-21.118
0.743,1.529,0.034,-2.319,19.531,-106.323
0.592,1.238,-0.020,-22.583,17.029,-218.750
0.469,0.747,0.016,-37.415,0.671,-299.561
0.363,0.404,0.119,-35.950,-14.526,-342.407
0.281,0.200,0.163,-37.476,-15.320,-361.938
0.215,0.041,0.130,-42.236,-6.409,-375.732
0.172,-0.169,0.070,-50.110,0.000,-389.221
0.189,-0.421,0.065,-64.087,-2.686,-402.710
0.275,-0.715,0.131,-77.698,-16.296,-416.809
0.380,-1.050,0.269,-90.210,-35.522,-426.697
0.473,-1.415,0.415,-95.886,-45.776,-423.645
0.561,-1.854,0.496,-85.083,-41.687,-386.780
0.663,-2.173,0.513,-66.589,-27.832,-319.885
0.724,-2.441,0.481,-38.879,-12.390,-256.470
0.747,-2.602,0.440,-19.592,-0.183,-180.908
0.747,-2.563,0.434,-5.615,5.066,-91.980
0.760,-2.338,0.460,14.954,4.517,-3.723
0.745,-2.064,0.516,30.457,5.127,67.505
0.695,-1.821,0.587,32.715,10.559,118.591
0.642,-1.581,0.615,38.025,22.461,158.142
0.594,-1.342,0.582,47.607,37.598,190.125
0.542,-1.107,0.504,59.570,50.903,214.233
0.517,-0.880,0.407,66.956,61.157,229.553
0.510,-0.704,0.303,66.650,65.125,235.901
0.509,-0.558,0.216,60.059,63.721,235.718
0.532,-0.452,0.146,51.758,58.289,231.750
0.565,-0.378,0.095,45.105,49.255,223.999
0.582,-0.324,0.061,38.940,39.734,214.172
0.624,-0.275,0.026,34.180,31.921,203.735
0.662,-0.220,-0.009,32.104,26.489,193.604
0.711,-0.166,-0.046,32.776,21.057,182.312
0.763,-0.142,-0.072,34.912,14.343,169.067
0.792,-0.141,-0.057,35.217,5.493,155.029
0.819,-0.138,-0.023,34.241,-1.343,141.907
0.839,-0.157,-0.013,37.231,-4.822,130.737
0.809,-0.177,0.004,40.161,-7.324,122.009
0.838,-0.180,0.001,38.391,-8.972,117.065
0.901,-0.207,0.014,29.663,-11.658,112.061
0.881,-0.163,0.088,16.663,-14.648,113.342
0.920,-0.165,0.076,22.156,-11.230,113.159
0.886,-0.133,0.069,18.616,-6.287,109.924
0.932,-0.093,0.020,15.869,-2.991,106.934
0.928,-0.043,0.016,11.597,-5.432,104.675
0.940,0.012,0.036,9.155,-10.132,101.135
0.951,0.035,0.061,13.306,-13.550,95.520
0.962,0.032,0.085,15.137,-14.648,89.233
0.969,0.037,0.107,11.902,-13.489,83.069
0.969,0.048,0.115,8.179,-11.597,77.759
0.972,0.070,0.118,5.432,-9.399,73.303

0.893,1.064,0.196,42.847,-6.836,-30.518
0.823,1.458,0.217,48.401,6.714,-65.002
0.669,1.533,0.112,57.617,29.724,-154.663
0.476,1.253,-0.036,41.748,43.762,-255.371
0.317,0.887,-0.112,16.541,35.339,-325.317
0.221,0.499,-0.065,-4.272,13.550,-371.521
0.137,0.163,0.041,-26.062,-7.812,-400.391
0.115,-0.127,0.131,-54.199,-17.212,-413.330
0.135,-0.398,0.197,-84.717,-21.545,-420.959
0.260,-0.677,0.257,-115.662,-25.330,-426.819
0.363,-0.992,0.344,-127.502,-32.166,-435.913
0.461,-1.376,0.436,-123.962,-35.339,-434.204
0.547,-1.851,0.477,-109.497,-27.588,-403.320
0.638,-2.199,0.467,-87.036,-13.672,-338.745
0.676,-2.415,0.399,-50.110,0.122,-263.611
0.693,-2.473,0.314,-17.517,10.864,-181.824
0.724,-2.306,0.271,-3.601,14.343,-93.140
0.758,-2.053,0.330,3.296,8.057,-18.188
0.764,-1.850,0.480,6.165,0.732,32.654
0.735,-1.691,0.599,13.184,4.761,70.740
0.693,-1.531,0.612,26.428,22.095,103.088
0.652,-1.371,0.554,36.438,42.847,131.470
0.623,-1.228,0.472,42.480,57.251,154.663
0.594,-1.083,0.394,44.495,64.575,172.668
0.577,-0.946,0.325,42.053,67.444,185.974
0.576,-0.805,0.260,36.804,67.505,195.007
0.586,-0.682,0.199,32.166,65.002,199.890
0.604,-0.585,0.139,28.931,60.486,200.745
0.638,-0.500,0.095,24.109,53.284,198.303
0.662,-0.426,0.067,18.250,44.189,193.054
0.697,-0.387,0.044,15.808,36.499,185.669
0.720,-0.385,0.023,18.250,30.457,178.040
0.748,-0.366,0.014,19.836,24.719,172.852
0.758,-0.327,0.010,22.400,19.836,169.678
0.771,-0.269,0.001,27.954,15.930,166.626
0.786,-0.184,-0.008,30.334,12.390,163.879
0.810,-0.107,-0.016,29.480,9.338,158.325
0.825,-0.078,-0.024,30.396,5.249,148.254
0.874,-0.047,-0.025,24.780,2.014,136.658
0.891,-0.066,-0.041,14.282,0.000,125.793
0.864,0.005,0.021,0.183,-3.113,119.019
0.893,0.029,0.012,13.733,-3.235,112.244
0.904,0.037,-0.004,26.062,-1.587,101.013
0.926,0.022,-0.017,27.222,-3.052,88.745
0.942,-0.038,-0.009,18.799,-6.897,77.698
0.945,-0.083,0.022,7.935,-11.719,71.594
0.963,-0.135,0.041,7.324,-13.733,70.007
0.959,-0.145,0.059,5.432,-12.207,73.608
0.961,-0.135,0.051,3.601,-9.521,78.369
0.968,-0.107,0.045,2.319,-8.667,82.703

0.903,0.896,0.190,8.972,0.183,-31.067
0.841,1.140,0.178,16.418,5.554,-69.763
0.766,1.248,0.107,14.832,14.526,-136.292
0.644,1.125,0.036,0.061,20.691,-214.233
0.448,0.915,-0.031,-22.888,20.508,-281.067
0.318,0.760,-0.059,-50.537,15.503,-325.195
0.168,0.600,-0.020,-61.218,3.174,-360.657
0.023,0.376,0.024,-64.270,-5.737,-392.395
-0.010,0.062,0.042,-68.054,-11.230,-421.021
-0.157,-0.263,0.102,-81.665,-17.090,-439.087
-0.043,-0.519,0.144,-103.516,-23.804,-445.312
0.066,-0.763,0.225,-104.492,-37.048,-457.825
0.180,-1.042,0.327,-92.163,-51.270,-467.468
0.225,-1.365,0.426,-82.825,-53.040,-456.177
0.368,-1.739,0.450,-72.754,-42.236,-431.580
0.443,-2.136,0.450,-57.495,-30.884,-392.761
0.495,-2.513,0.414,-44.434,-20.752,-340.149
0.541,-2.777,0.389,-40.466,-13.184,-271.545
0.563,-2.922,0.427,-35.706,-13.794,-187.378
0.586,-2.836,0.523,-15.442,-21.423,-85.938
0.612,-2.492,0.626,17.090,-26.001,15.503
0.576,-2.139,0.702,41.870,-19.226,89.172
0.515,-1.851,0.736,48.157,-3.784,133.850
0.474,-1.610,0.714,51.453,14.343,166.443
0.448,-1.374,0.658,56.763,30.945,195.557
0.433,-1.159,0.597,59.509,43.091,218.140
0.414,-0.983,0.530,59.753,51.758,232.178
0.420,-0.825,0.468,57.190,58.350,240.112
0.430,-0.688,0.396,54.199,62.256,243.225
0.450,-0.585,0.315,49.622,63.660,241.394
0.480,-0.536,0.230,42.114,63.110,235.718
0.502,-0.507,0.160,32.715,59.082,228.149
0.518,-0.488,0.109,26.428,52.795,221.252
0.567,-0.464,0.064,24.536,46.387,215.820
0.609,-0.408,0.037,21.423,40.466,212.402
0.639,-0.351,0.012,21.912,34.912,206.299
0.660,-0.291,-0.012,28.381,29.480,197.388
0.703,-0.225,-0.019,34.851,22.583,186.035
0.729,-0.197,-0.031,40.771,15.259,173.157
0.674,-0.180,-0.006,37.292,8.545,160.095
0.814,-0.203,-0.037,30.151,5.371,148.804
0.830,-0.219,-0.010,21.545,0.427,139.832
0.797,-0.140,0.040,18.188,-2.747,139.587
0.821,-0.120,0.006,39.001,-1.404,135.864
0.832,-0.082,-0.025,47.729,-0.916,129.761
0.886,-0.072,-0.046,40.039,-3.174,121.460
0.895,-0.068,-0.014,24.231,-10.437,112.061
0.918,-0.082,0.037,11.475,-15.869,102.295
0.925,-0.111,0.071,12.390,-17.090,94.971
0.937,-0.111,0.082,16.968,-14.709,92.285

1.027,0.531,0.309,28.320,23.560,-13.611
0.937,0.741,0.367,46.509,33.020,-23.071
0.789,0.976,0.376,53.040,48.889,-41.687
0.766,1.146,0.231,32.593,74.524,-91.370
0.652,1.108,0.064,-8.972,94.299,-169.861
0.507,0.871,-0.076,-47.607,97.290,-244.324
0.394,0.604,-0.183,-78.308,84.839,-293.274
0.290,0.382,-0.225,-102.234,60.913,-321.533
0.236,0.159,-0.216,-112.976,31.189,-339.355
0.214,-0.026,-0.123,-118.103,0.183,-348.999
0.241,-0.189,0.026,-117.249,-26.367,-352.478
0.280,-0.369,0.159,-110.657,-41.992,-354.248
0.371,-0.550,0.250,-110.291,-45.471,-357.727
0.419,-0.745,0.322,-106.873,-42.175,-369.141
0.495,-1.001,0.345,-91.431,-36.133,-378.418
0.533,-1.284,0.349,-84.595,-25.513,-368.652
0.529,-1.550,0.332,-82.764,-13.733,-353.943
0.578,-1.854,0.282,-70.496,-4.089,-317.993
0.636,-2.055,0.240,-57.678,-0.854,-263.977
0.670,-2.229,0.248,-43.640,-4.700,-205.200
0.684,-2.318,0.302,-30.212,-12.634,-140.137
0.696,-2.278,0.375,-20.264,-17.578,-69.092
0.710,-2.127,0.437,-12.573,-15.442,-2.014
0.704,-1.956,0.484,-1.953,-9.155,52.612
0.684,-1.817,0.506,12.329,-1.282,94.910
0.640,-1.653,0.522,24.475,8.179,131.470
0.581,-1.435,0.510,33.508,19.775,164.978
0.570,-1.221,0.446,45.837,32.593,190.613
0.555,-1.049,0.365,58.899,41.504,206.604
0.539,-0.888,0.305,64.148,43.701,216.370
0.550,-0.760,0.267,63.110,41.748,221.375
0.555,-0.668,0.239,60.303,38.269,221.191
0.561,-0.593,0.206,53.772,35.217,219.666
0.571,-0.531,0.168,47.485,34.119,218.445
0.599,-0.472,0.128,46.265,32.349,216.919
0.625,-0.413,0.095,47.302,29.480,214.966
0.660,-0.388,0.061,45.715,27.100,211.670
0.675,-0.371,0.030,42.908,23.865,206.665
0.693,-0.328,0.008,41.870,19.348,204.041
0.705,-0.261,-0.009,48.340,13.611,201.660
0.738,-0.174,-0.021,58.655,6.165,199.951
0.760,-0.085,-0.019,60.181,-0.305,195.251
0.820,-0.060,-0.038,53.833,-5.188,184.998
0.806,0.045,0.020,34.180,-9.949,175.171
0.834,0.081,0.028,37.903,-11.047,164.612
0.840,0.112,0.008,46.753,-9.399,151.489
0.882,0.159,-0.016,41.626,-8.667,137.146
0.892,0.180,-0.013,32.227,-12.085,122.620
0.913,0.185,0.014,20.569,-16.052,107.727
0.927,0.138,0.033,12.695,-16.418,91.370

0.746,1.459,0.085,-11.658,-6.836,-29.053
0.596,1.661,0.042,-10.864,-1.892,-117.249
0.521,1.487,-0.065,-30.151,-4.089,-216.919
0.358,1.095,0.010,-77.332,-25.452,-298.889
0.275,0.603,0.165,-97.412,-55.969,-361.206
0.237,0.280,0.304,-105.347,-72.510,-386.047
0.209,0.084,0.367,-113.647,-70.740,-390.747
0.198,-0.072,0.380,-119.934,-61.462,-390.076
0.210,-0.258,0.385,-120.361,-54.382,-392.456
0.271,-0.470,0.440,-117.859,-54.871,-399.048
0.369,-0.721,0.526,-106.812,-59.753,-410.645
0.478,-1.039,0.604,-89.111,-59.021,-426.331
0.524,-1.425,0.641,-76.294,-49.500,-426.147
0.610,-1.859,0.628,-66.956,-33.386,-389.221
0.608,-2.153,0.595,-56.580,-15.320,-327.332
0.661,-2.343,0.518,-35.645,1.160,-256.775
0.682,-2.414,0.466,-15.381,9.338,-179.565
0.711,-2.315,0.472,-6.287,10.498,-99.121
0.738,-2.098,0.531,-2.075,8.484,-25.330
0.731,-1.887,0.611,6.958,11.658,29.602
0.685,-1.706,0.653,21.667,22.156,69.702
0.625,-1.550,0.627,36.255,38.696,101.807
0.570,-1.377,0.555,42.725,57.617,130.615
0.547,-1.204,0.451,48.279,71.838,154.297
0.518,-1.049,0.351,54.871,78.186,170.593
0.516,-0.918,0.279,56.641,76.355,179.871
0.541,-0.858,0.231,58.838,69.336,182.495
0.536,-0.816,0.207,59.509,58.167,183.777
0.542,-0.740,0.197,56.335,49.377,187.744
0.576,-0.647,0.184,57.617,42.542,191.406
0.618,-0.578,0.165,64.148,35.767,191.650
0.650,-0.540,0.147,66.223,28.503,189.392
0.676,-0.487,0.164,60.364,21.362,186.951
0.726,-0.420,0.195,51.331,15.747,183.777
0.743,-0.366,0.221,48.462,13.123,178.894
0.755,-0.321,0.205,50.232,16.113,173.035
0.757,-0.299,0.154,52.063,20.691,166.870
0.755,-0.267,0.097,52.673,22.766,163.391
0.817,-0.249,0.053,50.110,19.836,161.743
0.785,-0.153,0.089,39.795,11.536,163.330
0.822,-0.141,0.083,55.054,6.287,159.790
0.807,-0.117,0.065,67.871,4.089,154.053
0.848,-0.071,0.039,60.181,4.211,148.071
0.848,-0.026,0.036,46.631,1.953,142.883
0.861,0.035,0.036,37.842,-0.732,138.062
0.877,0.095,0.035,35.400,-2.014,131.165
0.896,0.131,0.034,34.668,-3.540,122.986
0.909,0.125,0.041,31.677,-5.615,112.488
0.917,0.118,0.056,24.353,-7.629,102.234
0.929,0.119,0.073,18.188,-9.460,95.276

0.891,0.945,0.262,-2.136,6.165,-27.771
0.804,1.357,0.267,0.183,17.761,-52.368
0.720,1.566,0.162,4.272,32.959,-125.488
0.558,1.430,0.029,-15.686,39.490,-224.182
0.404,1.056,-0.036,-41.748,29.846,-307.312
0.248,0.708,-0.021,-62.195,10.986,-359.558
0.121,0.453,-0.022,-87.219,-0.549,-389.099
0.006,0.252,-0.054,-112.183,-4.395,-408.325
-0.109,0.079,-0.070,-127.869,-10.742,-417.908
-0.195,-0.072,-0.033,-136.658,-23.621,-423.035
-0.229,-0.245,0.063,-142.334,-39.490,-427.002
-0.158,-0.486,0.185,-142.639,-56.152,-431.458
0.040,-0.723,0.379,-149.170,-76.111,-440.369
0.193,-1.061,0.573,-133.667,-93.323,-463.074
0.285,-1.551,0.659,-98.999,-91.248,-482.300
0.372,-1.978,0.651,-88.562,-71.289,-452.637
0.475,-2.339,0.604,-89.539,-45.654,-398.132
0.493,-2.767,0.580,-74.036,-27.100,-365.417
0.532,-3.197,0.541,-38.940,-19.958,-316.589
0.525,-3.423,0.608,-15.381,-25.391,-217.590
0.520,-3.330,0.765,6.836,-33.386,-83.984
0.537,-2.760,0.880,42.053,-31.860,57.556
0.514,-2.142,0.927,75.439,-16.235,157.349
0.460,-1.737,0.929,89.478,3.357,206.970
0.410,-1.458,0.892,88.867,24.170,234.924
0.342,-1.203,0.837,82.703,43.579,258.118
0.323,-0.967,0.740,78.491,62.256,277.405
0.330,-0.795,0.606,76.111,79.651,287.354
0.342,-0.647,0.473,71.594,91.553,289.734
0.338,-0.514,0.354,64.087,95.459,288.513
0.350,-0.381,0.248,55.298,93.384,284.241
0.399,-0.267,0.148,48.767,88.379,276.306
0.446,-0.175,0.051,42.419,80.322,263.611
0.501,-0.105,-0.028,35.461,70.129,248.108
0.562,-0.060,-0.093,32.959,56.946,228.088
0.638,-0.064,-0.130,36.255,41.748,205.017
0.704,-0.122,-0.123,37.720,23.682,179.626
0.756,-0.241,-0.068,34.546,5.493,154.358
0.767,-0.348,-0.000,30.151,-5.310,138.245
0.718,-0.420,0.051,27.832,-8.728,132.812
0.815,-0.457,0.042,32.959,-6.042,133.972
0.783,-0.444,0.073,41.687,-4.883,141.724
0.802,-0.244,0.073,43.762,-1.587,154.358
0.828,-0.148,0.027,62.866,2.625,152.710
0.817,-0.101,-0.012,67.383,1.404,146.057
0.864,-0.065,-0.039,46.753,-1.953,137.878
0.869,-0.047,-0.013,20.935,-9.033,129.639
0.889,-0.049,0.026,7.080,-15.930,122.864
0.907,-0.055,0.064,8.240,-19.287,117.859
0.915,-0.052,0.093,13.550,-19.714,115.723

0.777,1.103,0.119,-17.029,8.301,-117.554
0.595,1.158,0.104,-26.001,10.986,-192.139
0.524,0.967,0.093,-46.936,11.353,-272.339
0.351,0.645,0.131,-65.369,4.761,-330.566
0.223,0.402,0.138,-76.477,3.479,-364.929
0.107,0.164,0.096,-73.669,6.592,-388.367
0.005,-0.025,0.051,-74.829,7.812,-402.466
-0.059,-0.171,0.042,-88.074,2.747,-406.799
-0.092,-0.356,0.075,-100.220,-8.423,-408.752
0.019,-0.567,0.126,-112.793,-26.733,-412.170
0.158,-0.836,0.322,-134.033,-55.054,-416.138
0.322,-1.211,0.501,-134.460,-76.904,-441.895
0.391,-1.776,0.603,-106.323,-82.886,-461.609
0.472,-2.276,0.665,-81.787,-74.585,-411.621
0.576,-2.638,0.661,-54.565,-56.458,-338.562
0.630,-2.933,0.602,-20.264,-35.706,-262.756
0.692,-3.052,0.529,4.395,-23.010,-168.030
0.712,-2.915,0.586,16.785,-26.123,-58.350
0.720,-2.574,0.737,28.564,-32.715,42.236
0.690,-2.221,0.877,35.461,-26.123,118.896
0.610,-1.866,0.953,39.063,-6.653,176.208
0.540,-1.507,0.928,43.396,20.447,221.619
0.483,-1.176,0.823,50.903,50.110,254.028
0.444,-0.922,0.667,59.387,75.623,273.682
0.403,-0.713,0.517,60.974,90.881,282.776
0.382,-0.543,0.386,56.396,96.802,283.997
0.392,-0.424,0.264,51.758,95.825,278.564
0.418,-0.338,0.165,46.936,89.294,269.104
0.454,-0.254,0.094,41.321,78.369,256.653
0.492,-0.200,0.036,39.612,65.674,242.493
0.536,-0.171,-0.008,37.292,54.077,227.478
0.565,-0.172,-0.043,34.790,43.274,209.900
0.618,-0.168,-0.081,40.283,32.410,192.139
0.673,-0.136,-0.099,45.715,20.752,180.725
0.745,-0.155,-0.078,44.128,7.202,166.504
0.785,-0.205,0.004,36.621,-5.249,149.292
0.802,-0.239,0.084,28.809,-13.428,136.719
0.829,-0.259,0.096,25.330,-12.756,128.662
0.794,-0.260,0.117,22.705,-8.850,124.329
0.914,-0.242,0.077,24.353,-3.845,123.413
0.866,-0.161,0.112,20.813,-3.418,127.014
0.865,-0.012,0.114,21.545,-2.625,126.648
0.905,-0.043,0.053,51.392,-2.197,111.633
0.903,-0.047,0.024,53.772,-6.653,101.685
0.930,-0.023,0.049,27.161,-13.062,93.567
0.938,-0.063,0.123,13.428,-20.569,86.243
0.958,-0.153,0.179,18.555,-22.827,80.505
0.958,-0.207,0.203,21.362,-18.433,80.322
0.951,-0.188,0.198,22.888,-10.742,85.754
0.953,-0.121,0.157,27.344,-4.639,92.590

