aX,aY,aZ,gX,gY,gZ
0.728,-0.479,0.736,11.292,118.896,-49.866
0.756,-0.590,0.784,14.404,121.765,-46.021
0.794,-0.732,0.846,24.353,128.967,-46.326
0.781,-0.944,0.904,37.048,141.479,-39.429
0.771,-1.158,0.930,42.480,158.508,-13.611
0.742,-1.399,0.918,48.035,179.382,30.090
0.738,-1.568,0.839,55.359,203.125,89.966
0.666,-1.613,0.697,69.946,229.492,152.527
0.488,-1.548,0.531,85.266,252.319,223.389
0.364,-1.318,0.333,100.159,262.878,302.673
0.199,-0.937,0.103,130.249,262.451,373.474
0.060,-0.505,-0.175,135.376,254.089,421.082
-0.020,-0.116,-0.437,123.901,236.328,438.538
-0.040,0.294,-0.645,111.633,188.538,444.092
-0.042,0.691,-0.676,101.440,115.112,448.181
-0.000,0.949,-0.543,101.563,24.292,448.792
0.071,1.174,-0.209,89.661,-66.040,446.533
0.201,1.516,0.200,72.510,-125.488,388.245
0.296,1.471,0.530,62.378,-144.958,299.011
0.362,1.363,0.765,21.423,-129.944,229.309
0.415,1.275,0.883,3.906,-99.915,185.547
0.467,1.334,0.922,6.531,-67.688,157.227
0.496,1.416,0.921,0.793,-41.077,134.216
0.514,1.452,0.928,-9.033,-19.531,104.553
0.509,1.475,0.909,-7.080,1.892,67.444
0.510,1.575,0.866,-12.756,17.395,36.987
0.484,1.613,0.769,-22.278,32.959,2.136
0.459,1.584,0.628,-24.902,49.255,-40.161
0.437,1.527,0.465,-33.508,58.105,-81.238
0.420,1.451,0.312,-39.551,52.979,-118.042
0.395,1.378,0.206,-47.668,36.804,-151.428
0.360,1.315,0.139,-58.289,13.550,-184.814
0.356,1.215,0.109,-70.007,-12.573,-220.581
0.373,0.949,0.168,-85.205,-43.518,-257.812
0.396,0.636,0.313,-105.408,-75.623,-285.645
0.408,0.382,0.470,-118.347,-95.642,-295.654
0.446,0.235,0.572,-117.249,-97.961,-292.542
0.494,0.166,0.633,-110.107,-89.050,-282.532
0.524,0.113,0.659,-99.304,-76.477,-274.109
0.551,0.029,0.644,-82.703,-62.439,-272.827
0.622,-0.103,0.588,-64.209,-48.584,-274.536
0.653,-0.258,0.537,-49.683,-35.889,-273.315
0.734,-0.447,0.481,-36.133,-24.475,-267.151
0.794,-0.585,0.422,-24.475,-13.184,-254.211
0.829,-0.699,0.355,-13.184,-4.456,-230.835
0.869,-0.740,0.285,-4.822,0.977,-190.918
0.911,-0.668,0.219,1.892,2.441,-144.104
0.927,-0.573,0.164,10.498,-0.366,-107.239
0.929,-0.511,0.141,12.451,-8.545,-81.543
0.937,-0.476,0.168,4.456,-21.790,-62.195

0.915,-0.271,0.527,-5.188,-48.340,0.916
0.914,-0.210,0.545,-2.136,-37.598,8.057
0.884,-0.169,0.540,2.075,-23.071,11.108
0.884,-0.151,0.483,7.629,-6.104,12.817
0.855,-0.126,0.433,11.292,3.235,12.634
0.884,-0.099,0.388,8.484,4.761,12.024
0.872,-0.072,0.386,0.061,2.686,13.123
0.876,-0.059,0.401,0.854,-1.526,15.198
0.874,-0.040,0.435,0.366,-6.104,17.029
0.897,-0.014,0.469,-4.761,-9.216,18.616
0.891,-0.002,0.502,-7.812,-9.888,19.165
0.878,0.001,0.532,-5.981,-9.827,19.348
0.886,0.001,0.539,-6.653,-9.644,18.127
0.888,0.017,0.569,-11.597,-7.446,17.456
0.909,0.004,0.563,-7.996,-2.686,16.357
0.906,-0.008,0.544,-4.822,1.343,16.663
0.887,0.001,0.515,-4.761,6.104,18.921
0.883,0.014,0.490,-1.648,7.874,21.301
0.874,0.045,0.488,-0.977,7.019,23.621
0.867,0.090,0.504,-2.991,4.761,25.146
0.851,0.129,0.527,-3.845,4.456,24.231
0.900,0.140,0.496,-4.700,7.568,19.653
0.858,0.142,0.484,-7.629,12.817,15.137
0.858,0.133,0.467,-2.991,14.893,11.536
0.869,0.127,0.453,0.244,15.381,7.751
0.869,0.098,0.438,0.000,15.747,3.235
0.867,0.064,0.428,-2.625,15.625,-0.732
0.877,0.018,0.419,-3.479,14.771,-2.808
0.874,-0.011,0.408,-3.601,13.550,-2.747
0.869,-0.007,0.401,-2.319,11.292,-0.183
0.868,0.024,0.397,1.404,7.812,3.235
0.873,0.062,0.405,4.639,3.479,4.944
0.876,0.081,0.427,4.761,-0.366,3.357
0.883,0.081,0.455,2.197,-2.136,0.427
0.882,0.067,0.475,0.122,-1.465,-2.014
0.889,0.060,0.483,-0.916,1.160,-3.967
0.883,0.063,0.476,0.793,4.700,-5.127
0.885,0.067,0.462,3.174,6.897,-6.470
0.890,0.066,0.457,3.052,7.019,-8.362
0.892,0.037,0.461,1.587,6.409,-10.925
0.898,0.002,0.473,-0.366,5.005,-13.000
0.902,-0.026,0.477,-1.221,4.089,-13.550
0.903,-0.046,0.482,0.122,4.150,-12.024
0.905,-0.043,0.474,1.831,6.165,-8.301
0.901,-0.022,0.463,3.845,8.057,-4.639
0.900,0.016,0.452,4.089,8.667,-1.709
0.896,0.029,0.440,3.967,8.667,-1.831
0.895,0.025,0.432,1.038,8.484,-4.028
0.893,0.020,0.431,-1.709,6.836,-5.920
0.894,0.013,0.433,-1.221,4.456,-6.958

0.954,-0.392,0.479,-2.563,42.114,-31.128
0.977,-0.447,0.464,0.671,48.340,-18.860
0.986,-0.486,0.448,-1.160,55.481,-2.441
0.983,-0.561,0.429,-3.357,61.951,14.771
0.998,-0.633,0.406,-13.611,68.848,33.569
1.007,-0.706,0.399,-29.236,72.510,55.481
1.017,-0.755,0.429,-40.833,73.059,82.336
1.012,-0.837,0.484,-41.199,76.477,112.305
0.971,-0.977,0.502,-39.124,85.938,141.174
0.896,-1.038,0.492,-48.157,105.103,165.283
0.847,-1.141,0.426,-55.420,126.587,198.303
0.684,-1.125,0.339,-71.472,145.630,238.098
0.494,-1.109,0.171,-68.298,162.415,278.992
0.284,-0.921,0.002,-33.386,171.265,336.914
0.146,-0.502,-0.189,28.687,163.574,410.522
0.032,0.060,-0.292,79.346,137.878,464.661
0.013,0.464,-0.361,100.708,102.234,482.056
-0.056,0.775,-0.356,88.318,61.279,479.553
0.034,1.011,-0.310,72.998,24.963,468.567
0.044,1.239,-0.184,85.327,-17.578,431.702
0.153,1.504,0.019,107.483,-59.326,378.235
0.246,1.628,0.227,115.234,-86.731,314.331
0.339,1.670,0.391,103.943,-95.154,247.253
0.399,1.588,0.515,81.726,-86.914,178.284
0.439,1.447,0.566,52.490,-70.923,123.718
0.464,1.389,0.589,26.855,-57.007,93.872
0.464,1.395,0.613,15.564,-46.509,76.538
0.460,1.390,0.625,14.465,-33.752,58.716
0.411,1.421,0.621,16.479,-19.653,43.884
0.429,1.530,0.580,35.522,-6.409,30.762
0.404,1.540,0.554,54.382,2.563,8.850
0.425,1.587,0.550,50.476,7.812,-15.747
0.430,1.551,0.553,39.185,12.817,-48.645
0.414,1.410,0.534,29.053,18.982,-85.388
0.405,1.277,0.508,18.311,24.902,-111.511
0.434,1.169,0.472,15.625,28.931,-127.014
0.462,1.068,0.441,16.235,29.358,-136.047
0.483,0.983,0.418,9.521,27.954,-141.479
0.496,0.895,0.396,1.099,26.550,-146.484
0.511,0.827,0.374,-4.761,26.245,-150.513
0.539,0.765,0.367,-8.789,26.123,-152.771
0.570,0.700,0.352,-11.169,26.672,-155.151
0.595,0.635,0.333,-18.127,27.771,-157.104
0.599,0.583,0.303,-26.978,28.809,-158.203
0.604,0.546,0.258,-30.090,31.067,-158.569
0.621,0.516,0.205,-25.940,32.532,-158.752
0.627,0.487,0.168,-20.264,30.334,-158.875
0.645,0.472,0.148,-18.188,23.560,-159.180
0.683,0.418,0.155,-20.508,13.550,-159.363
0.720,0.365,0.177,-22.278,3.601,-163.452

1.090,-0.661,0.364,-21.179,32.654,31.372
1.110,-0.789,0.378,-37.415,41.565,35.889
1.124,-0.963,0.371,-58.594,53.467,51.758
1.075,-1.048,0.373,-93.323,67.810,81.787
1.001,-1.262,0.292,-113.831,84.961,108.337
0.834,-1.351,0.152,-127.869,100.952,143.799
0.632,-1.415,0.025,-152.893,108.704,225.159
0.437,-1.283,-0.087,-155.151,110.596,312.073
0.195,-0.968,-0.224,-104.553,104.797,399.902
-0.002,-0.474,-0.387,-49.683,95.215,468.018
-0.155,0.061,-0.532,-18.127,75.684,511.475
-0.209,0.552,-0.632,-0.977,41.504,533.325
-0.229,0.865,-0.638,10.864,-4.211,539.429
-0.210,1.120,-0.528,4.944,-58.411,536.438
-0.157,1.461,-0.299,1.953,-109.619,509.949
0.103,1.723,-0.059,29.358,-145.020,441.406
0.068,1.783,0.285,52.734,-167.786,366.150
0.277,1.906,0.573,41.687,-169.250,297.424
0.428,1.929,0.823,37.231,-149.109,223.511
0.470,1.864,1.027,34.668,-116.455,150.879
0.508,1.790,1.113,29.846,-68.970,93.384
0.524,1.723,1.081,26.672,-12.573,46.387
0.521,1.597,0.932,24.841,42.847,5.493
0.450,1.485,0.713,25.574,88.379,-26.550
0.432,1.438,0.470,33.325,116.699,-49.683
0.436,1.399,0.256,44.983,125.549,-67.627
0.434,1.358,0.126,44.434,112.976,-82.886
0.435,1.306,0.088,35.400,85.144,-96.130
0.444,1.260,0.127,25.330,53.894,-107.849
0.469,1.168,0.196,17.639,29.297,-121.155
0.479,1.063,0.277,11.047,14.709,-131.592
0.495,0.967,0.334,7.019,10.620,-138.428
0.509,0.884,0.358,2.625,13.489,-142.151
0.521,0.835,0.350,-5.798,19.958,-143.616
0.520,0.809,0.313,-11.963,28.137,-144.592
0.536,0.810,0.268,-12.268,35.156,-147.034
0.544,0.822,0.228,-9.583,39.734,-151.733
0.546,0.812,0.183,-4.639,43.274,-159.912
0.551,0.771,0.133,-1.526,45.715,-171.509
0.567,0.709,0.084,-0.122,45.593,-183.960
0.568,0.644,0.046,1.953,43.335,-194.336
0.592,0.566,0.018,4.333,39.246,-202.332
0.622,0.464,0.001,5.188,32.776,-208.923
0.643,0.352,-0.005,2.625,25.085,-213.623
0.685,0.245,-0.011,0.610,16.724,-215.393
0.714,0.158,0.002,1.648,7.202,-212.402
0.749,0.097,0.031,4.456,-2.563,-204.224
0.784,0.072,0.078,8.362,-10.986,-193.115
0.811,0.089,0.134,11.963,-16.113,-179.749
0.816,0.118,0.180,16.907,-15.808,-169.067

1.065,-0.568,0.252,2.197,22.278,23.499
1.100,-0.681,0.274,1.587,26.917,36.682
1.134,-0.812,0.305,4.517,33.752,44.800
1.160,-1.051,0.308,4.883,44.739,46.997
1.082,-1.279,0.288,-11.719,58.960,66.040
1.002,-1.470,0.219,-41.748,76.233,110.596
0.835,-1.598,0.095,-73.608,92.590,172.668
0.639,-1.553,-0.026,-103.455,100.342,249.084
0.446,-1.384,-0.164,-96.619,96.313,334.778
0.225,-0.999,-0.282,-58.594,80.933,414.795
0.042,-0.471,-0.350,-26.550,59.082,475.159
-0.091,0.012,-0.387,1.160,34.302,505.676
-0.172,0.400,-0.413,26.428,6.836,515.076
-0.192,0.704,-0.417,35.217,-23.254,514.526
-0.157,0.959,-0.354,31.250,-57.556,512.085
-0.058,1.290,-0.193,34.851,-92.102,493.591
0.012,1.550,0.028,64.148,-117.798,425.110
0.206,1.729,0.208,86.853,-128.845,358.948
0.244,1.784,0.423,65.613,-125.916,295.654
0.406,1.916,0.567,50.781,-111.816,235.718
0.510,1.913,0.655,46.997,-85.693,172.852
0.550,1.812,0.707,31.616,-58.838,109.680
0.568,1.621,0.716,12.146,-30.884,52.490
0.575,1.416,0.666,3.967,-1.770,9.827
0.555,1.277,0.567,10.071,24.963,-16.113
0.555,1.219,0.441,23.254,42.786,-30.762
0.558,1.209,0.353,29.297,46.692,-40.283
0.560,1.190,0.323,30.701,38.269,-49.683
0.552,1.170,0.346,27.771,24.841,-59.021
0.552,1.146,0.388,24.170,14.038,-68.420
0.551,1.115,0.425,21.667,10.376,-78.247
0.569,1.073,0.451,17.090,12.634,-87.708
0.569,1.026,0.460,9.338,20.020,-95.154
0.571,0.980,0.428,2.197,31.372,-101.929
0.578,0.937,0.360,-2.441,42.358,-109.131
0.579,0.884,0.287,-6.165,49.255,-116.455
0.583,0.829,0.218,-8.667,51.514,-124.023
0.598,0.758,0.156,-9.033,50.232,-131.775
0.615,0.663,0.112,-7.996,45.776,-139.099
0.633,0.592,0.095,-9.094,41.016,-142.822
0.644,0.603,0.104,-7.874,35.950,-140.503
0.663,0.633,0.109,-0.366,31.494,-137.329
0.673,0.644,0.098,2.502,30.273,-139.465
0.678,0.615,0.076,-0.305,30.701,-146.301
0.680,0.566,0.054,-2.197,28.809,-153.442
0.698,0.520,0.056,-6.653,23.499,-158.203
0.720,0.457,0.073,-8.606,16.418,-162.537
0.735,0.389,0.096,-7.935,11.597,-165.588
0.765,0.316,0.103,-7.202,9.888,-166.748
0.783,0.248,0.099,-5.066,9.583,-165.710

1.099,-0.574,0.186,-11.475,13.123,43.945
1.116,-0.701,0.193,-15.808,15.991,54.382
1.115,-0.845,0.201,-25.269,19.470,65.308
1.105,-1.017,0.213,-39.490,25.085,86.853
1.043,-1.173,0.205,-57.190,30.334,121.155
0.922,-1.271,0.166,-76.172,38.086,170.044
0.760,-1.265,0.102,-91.614,48.096,236.206
0.585,-1.111,0.005,-85.938,55.847,305.603
0.410,-0.817,-0.105,-55.542,56.519,371.338
0.243,-0.444,-0.184,-35.767,50.171,422.974
0.122,-0.075,-0.220,-30.945,40.588,453.735
0.047,0.219,-0.232,-18.982,29.480,465.820
-0.010,0.433,-0.245,0.183,21.118,463.196
-0.100,0.704,-0.272,14.893,11.719,457.581
-0.076,0.937,-0.309,31.311,-3.601,461.121
0.024,1.225,-0.283,41.931,-25.940,449.829
0.106,1.521,-0.203,60.608,-51.575,387.756
0.229,1.514,-0.132,66.345,-71.899,310.547
0.227,1.488,0.034,31.250,-86.609,251.831
0.333,1.326,0.144,18.188,-91.431,207.397
0.399,1.271,0.271,9.460,-92.102,180.847
0.423,1.275,0.370,2.258,-86.914,163.147
0.433,1.318,0.432,2.441,-75.256,145.081
0.422,1.377,0.479,5.127,-60.669,126.038
0.402,1.464,0.518,10.803,-47.668,106.506
0.395,1.559,0.560,18.311,-36.621,85.388
0.391,1.643,0.603,26.611,-26.611,61.829
0.387,1.709,0.632,31.494,-15.259,35.400
0.370,1.740,0.621,36.682,-0.610,6.165
0.369,1.720,0.561,37.598,15.442,-24.353
0.366,1.656,0.482,28.992,29.297,-55.664
0.356,1.544,0.402,22.217,37.537,-85.571
0.358,1.423,0.346,19.714,39.917,-109.436
0.375,1.318,0.328,17.578,36.926,-125.916
0.376,1.234,0.326,11.047,33.508,-137.451
0.397,1.124,0.310,4.578,33.875,-148.682
0.421,0.999,0.273,-1.038,36.255,-159.058
0.437,0.896,0.234,-8.240,37.659,-165.222
0.453,0.830,0.196,-11.780,36.865,-167.969
0.470,0.756,0.159,-8.972,33.508,-169.678
0.495,0.713,0.143,-10.742,29.053,-170.288
0.507,0.687,0.135,-15.442,26.855,-169.495
0.525,0.651,0.116,-13.794,26.917,-169.128
0.560,0.593,0.097,-9.460,28.442,-170.837
0.577,0.544,0.086,-7.019,28.137,-172.363
0.611,0.498,0.076,-3.662,25.574,-172.180
0.637,0.448,0.073,-0.488,22.034,-171.448
0.650,0.400,0.065,0.427,18.982,-168.701
0.688,0.365,0.047,1.709,17.944,-164.551
0.727,0.345,0.031,5.005,16.357,-159.302

1.143,-0.688,0.232,-69.031,17.334,51.453
1.160,-0.884,0.201,-93.872,23.987,64.453
1.132,-1.142,0.119,-125.671,32.166,86.182
1.079,-1.286,0.032,-168.274,42.358,126.648
0.920,-1.376,0.001,-200.867,51.453,190.308
0.762,-1.373,-0.032,-207.703,59.082,256.775
0.594,-1.380,-0.089,-164.551,61.401,327.576
0.379,-1.235,-0.152,-126.892,58.044,407.593
0.164,-0.889,-0.207,-117.615,57.434,471.558
-0.116,-0.505,-0.316,-95.642,56.580,516.052
-0.287,-0.056,-0.459,-71.533,53.528,549.805
-0.403,0.470,-0.562,-52.124,40.405,568.970
-0.485,0.958,-0.585,-9.399,15.076,570.251
-0.479,1.311,-0.481,36.743,-25.024,571.777
-0.469,1.927,-0.164,74.280,-76.172,548.523
-0.248,2.153,0.189,126.587,-118.408,489.746
-0.208,2.296,0.566,132.629,-135.620,430.542
-0.044,2.422,0.833,110.229,-115.784,357.666
0.108,2.405,0.913,98.999,-63.538,259.155
0.182,2.366,0.852,73.975,-2.747,149.536
0.124,2.038,0.657,40.161,56.519,39.124
0.078,1.569,0.403,11.658,100.220,-39.795
0.077,1.305,0.173,6.470,118.225,-67.749
0.102,1.223,0.005,24.902,110.046,-64.514
0.127,1.263,-0.059,40.466,82.275,-52.734
0.138,1.358,-0.019,36.011,46.692,-45.593
0.154,1.401,0.095,23.621,14.526,-48.401
0.161,1.365,0.231,15.259,-4.395,-59.143
0.171,1.329,0.334,8.606,-9.766,-70.007
0.187,1.309,0.387,3.967,-4.211,-78.735
0.214,1.261,0.385,2.563,8.118,-90.637
0.238,1.182,0.336,0.793,24.170,-105.286
0.260,1.111,0.270,-0.366,38.391,-117.859
0.282,1.057,0.194,2.747,48.279,-126.831
0.300,1.016,0.114,6.287,55.054,-134.277
0.335,0.983,0.040,7.568,58.960,-141.968
0.354,0.941,-0.015,8.362,57.678,-149.414
0.379,0.918,-0.049,7.507,51.270,-155.029
0.395,0.910,-0.058,7.324,43.579,-160.034
0.419,0.901,-0.048,6.836,34.485,-165.894
0.439,0.866,-0.026,5.127,25.635,-173.767
0.456,0.820,0.003,2.380,18.616,-182.495
0.486,0.766,0.031,1.343,13.977,-190.002
0.516,0.692,0.056,4.150,10.864,-197.449
0.561,0.612,0.089,7.202,8.606,-204.102
0.596,0.528,0.124,10.742,7.385,-208.008
0.624,0.482,0.147,16.052,9.827,-207.825
0.650,0.449,0.132,24.902,15.442,-205.933
0.673,0.426,0.092,32.837,22.522,-203.796
0.714,0.397,0.046,33.813,28.320,-202.148

1.091,-0.573,0.087,-20.203,27.161,88.135
1.129,-0.706,0.057,-26.489,29.907,96.802
1.102,-0.888,0.046,-40.222,28.870,118.652
1.010,-1.018,0.024,-63.232,26.306,158.203
0.891,-1.027,-0.034,-86.548,29.175,215.637
0.743,-0.884,-0.134,-92.041,31.433,279.907
0.619,-0.590,-0.230,-81.909,26.123,335.327
0.490,-0.280,-0.282,-68.298,12.695,371.399
0.395,0.014,-0.283,-61.768,-3.601,389.832
0.338,0.250,-0.248,-50.598,-20.386,392.578
0.303,0.442,-0.180,-36.560,-33.875,385.925
0.303,0.578,-0.110,-24.292,-41.748,376.343
0.314,0.674,-0.052,-15.259,-43.579,359.985
0.359,0.734,0.012,-9.644,-43.091,336.487
0.375,0.796,0.092,-9.277,-41.138,310.425
0.399,0.877,0.110,-5.981,-32.166,288.269
0.389,1.001,0.094,-1.160,-19.043,270.874
0.334,1.167,0.089,5.554,-11.230,257.446
0.379,1.344,0.084,15.564,-7.019,242.554
0.376,1.493,0.114,20.264,-6.897,213.623
0.402,1.588,0.147,20.630,-7.996,170.898
0.397,1.541,0.208,12.634,-8.911,124.817
0.385,1.484,0.286,2.686,-8.362,90.637
0.385,1.463,0.340,5.615,-3.113,68.359
0.395,1.453,0.361,5.188,5.798,50.110
0.385,1.406,0.337,-0.916,17.822,32.166
0.371,1.368,0.273,-4.272,28.992,16.663
0.356,1.373,0.203,-4.150,35.400,4.578
0.350,1.366,0.135,-2.258,37.048,-7.019
0.321,1.315,0.089,-2.747,35.156,-21.790
0.334,1.277,0.052,-4.517,31.250,-35.339
0.343,1.241,0.035,-3.174,27.466,-47.302
0.341,1.230,0.032,-2.625,22.705,-58.167
0.348,1.235,0.014,-1.831,20.691,-70.007
0.356,1.227,-0.020,-0.122,20.081,-83.862
0.359,1.197,-0.044,1.160,17.273,-99.609
0.383,1.133,-0.045,0.488,11.108,-115.051
0.411,1.045,-0.026,-2.563,4.822,-129.272
0.443,0.943,-0.006,-2.319,0.122,-142.029
0.478,0.854,0.011,0.061,-2.625,-151.611
0.520,0.783,0.026,4.395,-4.456,-157.776
0.550,0.735,0.036,9.094,-5.249,-161.743
0.582,0.703,0.039,14.404,-5.554,-164.612
0.592,0.713,0.037,18.982,-5.798,-166.443
0.610,0.731,0.018,25.635,-5.981,-169.556
0.611,0.749,0.007,29.236,-6.897,-175.598
0.608,0.732,-0.020,32.349,-7.568,-184.937
0.618,0.681,-0.044,35.645,-8.240,-196.167
0.639,0.595,-0.047,37.659,-11.902,-206.543
0.675,0.446,-0.040,38.147,-17.944,-216.064

1.087,-0.530,0.155,-35.706,24.292,52.734
1.105,-0.587,0.115,-42.542,30.579,72.144
1.113,-0.673,0.100,-51.025,31.799,94.727
1.131,-0.753,0.123,-67.322,27.588,119.385
1.113,-0.867,0.164,-85.083,25.696,145.264
1.065,-0.988,0.196,-101.624,30.273,173.462
0.986,-1.084,0.196,-123.596,41.321,212.402
0.847,-1.099,0.164,-147.461,57.312,266.113
0.690,-0.992,0.113,-158.081,77.087,329.895
0.497,-0.829,0.010,-141.052,100.281,390.503
0.321,-0.531,-0.133,-125.793,123.474,439.819
0.131,-0.304,-0.343,-103.943,140.503,472.107
-0.061,-0.075,-0.598,-86.670,145.203,492.126
-0.203,0.233,-0.838,-79.651,129.883,505.676
-0.315,0.606,-0.963,-59.021,91.736,508.667
-0.349,0.934,-0.959,-20.508,33.630,497.375
-0.366,1.177,-0.798,6.714,-31.006,476.135
-0.210,1.381,-0.543,16.357,-86.731,447.083
-0.086,1.568,-0.227,28.015,-119.934,377.014
-0.027,1.485,0.054,34.241,-125.427,296.448
0.067,1.516,0.244,21.423,-110.840,245.483
0.132,1.674,0.391,33.691,-91.858,212.036
0.181,1.852,0.477,45.898,-69.885,179.321
0.196,1.953,0.520,46.936,-41.992,136.841
0.190,1.957,0.523,49.072,-11.963,87.219
0.168,1.907,0.468,49.927,18.860,39.856
0.139,1.824,0.340,49.805,49.988,0.061
0.121,1.740,0.168,52.490,71.533,-30.884
0.125,1.663,0.024,56.396,76.477,-53.589
0.138,1.578,-0.033,52.734,65.125,-70.374
0.150,1.482,-0.009,43.701,45.288,-83.313
0.154,1.405,0.053,35.034,27.771,-91.553
0.177,1.400,0.111,27.283,17.273,-95.703
0.200,1.405,0.142,22.095,14.221,-102.905
0.217,1.382,0.150,17.090,14.832,-115.173
0.229,1.324,0.134,12.634,18.250,-129.944
0.245,1.258,0.097,9.888,22.827,-144.897
0.263,1.185,0.046,10.376,26.611,-159.485
0.285,1.107,-0.011,13.000,28.442,-173.096
0.304,1.019,-0.055,17.212,26.978,-185.852
0.335,0.932,-0.062,21.729,20.996,-197.083
0.367,0.827,-0.041,25.452,14.160,-206.909
0.418,0.738,-0.002,26.489,10.986,-213.623
0.446,0.690,0.025,29.297,11.719,-215.454
0.476,0.680,0.021,35.034,16.663,-213.928
0.513,0.678,-0.002,39.856,22.949,-213.135
0.529,0.641,-0.034,41.626,28.381,-216.675
0.550,0.589,-0.068,39.917,32.227,-221.069
0.568,0.538,-0.099,40.771,32.593,-224.121
0.583,0.505,-0.117,43.945,29.724,-224.854

1.234,-0.730,0.244,22.522,17.456,30.212
1.273,-1.006,0.270,11.841,24.780,29.480
1.218,-1.313,0.276,-21.179,36.560,49.805
1.091,-1.527,0.267,-66.833,51.636,105.652
0.884,-1.608,0.219,-92.041,69.458,187.256
0.641,-1.528,0.104,-78.247,86.304,274.902
0.359,-1.171,-0.083,-34.668,96.985,367.615
0.126,-0.534,-0.254,3.967,98.633,447.876
-0.050,0.123,-0.357,39.429,85.388,493.103
-0.115,0.603,-0.420,81.482,54.626,509.155
-0.160,0.888,-0.393,106.995,12.756,516.907
-0.101,1.189,-0.292,107.971,-28.503,512.878
0.022,1.635,-0.161,116.943,-58.716,451.416
0.083,1.652,-0.088,132.690,-72.510,367.371
0.196,1.731,-0.064,89.417,-72.632,298.340
0.340,1.796,-0.021,32.288,-72.510,234.802
0.400,1.706,0.088,8.606,-79.895,170.288
0.427,1.670,0.288,0.549,-88.318,120.422
0.540,1.642,0.472,6.897,-85.205,80.200
0.580,1.628,0.641,19.958,-70.313,40.955
0.606,1.638,0.737,26.489,-41.565,4.456
0.604,1.615,0.720,35.706,-1.038,-34.058
0.587,1.573,0.624,39.612,39.734,-71.777
0.579,1.492,0.469,39.001,72.327,-105.835
0.568,1.395,0.310,33.386,90.454,-135.681
0.554,1.273,0.181,24.475,93.811,-161.011
0.546,1.109,0.073,14.832,86.731,-182.861
0.546,0.934,0.003,0.732,71.960,-200.684
0.556,0.770,-0.016,-15.381,52.795,-210.876
0.574,0.641,0.005,-26.855,33.020,-214.417
0.592,0.561,0.040,-32.410,16.357,-213.196
0.607,0.504,0.069,-35.645,5.554,-209.839
0.632,0.453,0.094,-38.757,-0.061,-208.679
0.657,0.389,0.105,-39.001,-1.343,-209.045
0.685,0.320,0.102,-37.292,-1.221,-209.290
0.715,0.245,0.090,-36.377,-1.160,-209.106
0.748,0.184,0.088,-36.438,-0.549,-208.130
0.787,0.094,0.062,-31.372,2.502,-206.787
0.805,0.018,0.007,-26.062,8.057,-202.148
0.828,-0.038,-0.060,-23.743,12.390,-193.604
0.844,-0.056,-0.108,-21.667,12.207,-182.678
0.882,-0.081,-0.138,-17.700,5.188,-170.776
0.898,-0.134,-0.131,-16.357,-4.944,-162.109
0.903,-0.170,-0.102,-18.555,-14.282,-154.602
0.912,-0.179,-0.057,-15.381,-21.790,-142.761
0.940,-0.198,-0.001,-6.470,-28.625,-129.822
0.976,-0.188,0.066,-1.038,-32.043,-117.737
0.984,-0.172,0.117,3.845,-29.968,-106.018
0.992,-0.149,0.138,7.874,-22.034,-97.473
1.000,-0.122,0.135,11.536,-12.329,-91.003

1.210,-0.947,-0.003,-10.437,36.438,44.006
1.151,-1.263,0.031,-11.597,30.945,64.209
1.064,-1.515,0.084,-30.212,33.508,118.408
0.904,-1.672,0.110,-35.339,38.574,199.707
0.633,-1.673,0.048,-24.414,44.861,293.884
0.331,-1.429,-0.107,-21.118,52.307,392.761
0.053,-0.885,-0.286,-34.546,52.979,482.117
-0.191,-0.301,-0.444,-29.541,40.344,540.710
-0.344,0.215,-0.537,-5.066,12.573,571.655
-0.472,0.704,-0.516,11.719,-24.902,585.266
-0.540,1.134,-0.401,23.254,-65.308,602.051
-0.369,1.810,-0.177,43.518,-98.816,600.952
-0.293,2.129,0.085,114.380,-118.164,503.479
-0.064,2.266,0.284,155.273,-120.972,398.804
0.227,2.421,0.449,106.934,-106.384,295.166
0.399,2.143,0.539,65.308,-78.186,177.185
0.473,1.681,0.573,31.006,-48.645,84.656
0.538,1.443,0.544,7.507,-21.301,43.396
0.554,1.390,0.483,7.507,0.488,26.550
0.530,1.442,0.399,12.878,18.250,10.620
0.509,1.448,0.277,21.240,31.860,-11.841
0.484,1.445,0.183,21.912,35.522,-36.072
0.475,1.455,0.153,18.372,26.550,-56.396
0.473,1.461,0.184,15.442,10.498,-74.463
0.467,1.433,0.248,9.460,-4.333,-94.116
0.458,1.378,0.305,1.282,-14.587,-114.685
0.442,1.318,0.329,-6.287,-18.250,-133.484
0.429,1.248,0.326,-11.963,-16.846,-151.733
0.423,1.164,0.303,-12.939,-13.611,-170.166
0.407,1.083,0.286,-14.526,-10.376,-186.646
0.401,1.020,0.265,-20.081,-5.615,-201.538
0.403,0.932,0.232,-19.836,-0.183,-217.773
0.414,0.795,0.186,-13.855,5.676,-235.779
0.428,0.655,0.133,-7.996,10.681,-250.854
0.454,0.525,0.088,-2.808,12.329,-260.254
0.493,0.408,0.067,2.991,10.132,-265.198
0.547,0.340,0.042,9.216,6.470,-265.930
0.603,0.249,0.016,16.541,2.991,-264.648
0.639,0.118,-0.013,20.325,0.610,-263.733
0.666,-0.000,-0.036,15.015,-0.854,-257.507
0.730,-0.042,-0.056,5.371,-4.517,-243.774
0.789,-0.089,-0.063,5.859,-13.672,-226.135
0.838,-0.108,-0.036,7.812,-26.428,-210.083
0.871,-0.102,0.012,6.042,-38.940,-194.519
0.893,-0.128,0.078,1.770,-49.255,-182.312
0.913,-0.142,0.149,1.709,-55.725,-170.654
0.944,-0.156,0.207,7.690,-56.519,-158.875
0.960,-0.175,0.267,15.503,-53.101,-147.034
0.969,-0.187,0.302,23.132,-44.495,-135.498
0.970,-0.193,0.314,29.968,-31.128,-124.512

1.090,-0.496,0.332,-41.260,22.644,46.936
1.152,-0.616,0.344,-61.951,28.259,59.326
1.246,-0.735,0.396,-88.623,32.776,63.049
1.281,-1.104,0.435,-123.657,37.048,69.214
1.241,-1.387,0.484,-200.439,49.133,100.403
1.232,-1.594,0.520,-276.245,75.317,145.752
0.972,-1.793,0.496,-308.899,110.291,186.218
0.579,-1.958,0.376,-307.861,158.203,231.445
0.031,-1.954,0.181,-277.954,209.412,304.687
-0.433,-1.511,-0.072,-199.524,251.282,423.218
-0.638,-0.438,-0.367,-21.545,265.747,556.885
-0.824,0.566,-0.623,188.721,232.544,630.859
-0.874,1.192,-0.765,284.790,164.856,670.776
-0.711,1.905,-0.621,265.320,78.796,694.519
-0.534,2.428,-0.304,263.672,-7.629,603.271
-0.186,2.614,0.087,289.368,-74.219,507.385
-0.087,2.800,0.504,227.356,-96.191,404.602
0.175,2.868,0.691,153.625,-71.960,281.189
0.379,2.728,0.681,94.604,-24.109,138.245
0.322,2.151,0.604,18.677,22.278,-4.944
0.344,1.526,0.432,-20.020,57.983,-97.229
0.418,1.177,0.275,-6.226,75.073,-128.479
0.490,0.997,0.158,24.170,75.867,-133.423
0.545,0.913,0.083,36.133,68.359,-131.531
0.584,0.879,0.052,35.889,54.443,-127.319
0.609,0.904,0.073,36.194,34.668,-119.507
0.605,0.976,0.159,32.837,12.146,-109.985
0.584,1.068,0.274,25.085,-4.272,-105.225
0.547,1.154,0.366,14.038,-10.803,-107.422
0.512,1.198,0.409,4.150,-7.263,-117.920
0.478,1.199,0.413,-4.211,1.892,-134.460
0.454,1.155,0.390,-12.634,15.442,-154.968
0.454,1.050,0.341,-16.785,30.945,-178.040
0.457,0.904,0.257,-18.616,47.119,-200.256
0.472,0.735,0.138,-20.020,60.181,-219.299
0.500,0.576,0.026,-18.921,66.528,-233.032
0.543,0.421,-0.072,-14.526,65.125,-241.394
0.577,0.320,-0.137,-12.146,56.946,-243.225
0.603,0.263,-0.189,-9.583,44.006,-237.244
0.676,0.202,-0.228,-7.568,30.457,-230.835
0.714,0.123,-0.233,-9.277,15.869,-226.074
0.724,0.077,-0.204,-16.846,0.305,-217.041
0.746,0.029,-0.171,-17.395,-12.573,-204.956
0.806,-0.012,-0.131,-14.038,-22.705,-192.871
0.858,-0.050,-0.074,-10.498,-32.593,-181.641
0.889,-0.071,-0.012,-6.958,-41.748,-170.898
0.937,-0.085,0.042,-3.784,-46.814,-160.828
0.953,-0.103,0.087,1.465,-48.462,-151.917
0.991,-0.122,0.122,6.287,-48.035,-143.127
1.010,-0.145,0.158,10.132,-44.617,-136.292

1.134,-0.537,0.319,-47.913,2.319,32.227
1.289,-0.678,0.392,-71.960,3.723,24.475
1.332,-1.012,0.412,-100.159,10.620,14.832
1.284,-1.369,0.401,-162.109,24.841,35.583
1.165,-1.523,0.353,-244.934,51.819,79.163
0.967,-1.628,0.288,-278.809,83.008,119.690
0.654,-1.724,0.181,-235.229,106.934,190.674
0.344,-1.621,0.046,-155.701,120.300,295.227
0.156,-1.038,-0.101,-61.096,123.047,413.086
-0.036,-0.243,-0.178,26.550,112.976,495.300
-0.172,0.447,-0.217,88.806,94.666,523.376
-0.191,0.782,-0.267,130.371,68.542,535.706
-0.133,1.107,-0.200,128.967,33.325,548.523
-0.043,1.726,-0.031,134.216,0.732,486.450
0.128,1.931,0.098,174.377,-23.437,390.991
0.255,2.078,0.261,151.550,-35.522,304.932
0.400,2.153,0.389,89.294,-28.931,215.332
0.469,1.924,0.406,49.316,-8.423,122.803
0.527,1.667,0.398,20.325,9.644,56.396
0.581,1.486,0.383,9.521,19.958,16.968
0.604,1.381,0.375,11.414,25.574,-9.338
0.621,1.313,0.349,14.954,32.471,-32.715
0.631,1.247,0.282,21.606,38.513,-55.420
0.658,1.186,0.208,23.193,38.696,-74.219
0.666,1.117,0.180,18.433,29.053,-89.172
0.656,1.075,0.201,12.024,13.123,-99.731
0.640,1.058,0.239,9.094,-1.709,-107.666
0.625,1.036,0.277,6.348,-12.085,-115.906
0.615,0.997,0.300,2.136,-17.639,-126.282
0.595,0.956,0.316,-6.409,-18.433,-136.780
0.589,0.894,0.317,-12.756,-14.587,-148.010
0.593,0.804,0.316,-17.700,-9.949,-159.851
0.609,0.677,0.300,-23.560,-3.357,-172.546
0.627,0.552,0.271,-27.649,5.920,-182.007
0.646,0.471,0.235,-24.658,14.771,-184.875
0.690,0.396,0.183,-14.404,22.705,-184.814
0.717,0.299,0.127,-5.554,30.334,-184.204
0.752,0.217,0.079,-3.906,36.560,-182.983
0.788,0.156,0.047,-0.366,38.086,-179.199
0.825,0.115,0.034,9.216,35.278,-172.485
0.837,0.092,0.025,19.531,32.532,-164.185
0.848,0.077,-0.000,27.710,33.386,-156.799
0.856,0.072,-0.033,31.067,33.691,-149.475
0.871,0.088,-0.051,29.968,30.090,-141.968
0.880,0.091,-0.059,28.320,22.766,-136.108
0.877,0.092,-0.057,22.583,14.160,-131.531
0.879,0.090,-0.034,13.367,5.310,-128.235
0.893,0.066,-0.001,7.263,-3.174,-127.014
0.920,0.012,0.038,3.967,-11.902,-127.991
0.948,-0.058,0.087,0.122,-18.799,-128.662

1.130,-0.626,0.304,-52.185,5.554,44.983
1.238,-0.794,0.347,-67.078,10.498,42.358
1.266,-1.134,0.362,-89.355,19.409,37.231
1.237,-1.375,0.386,-132.385,35.950,55.847
1.059,-1.622,0.342,-182.922,63.477,88.745
0.800,-1.779,0.258,-221.252,92.896,136.597
0.483,-1.867,0.103,-214.966,116.943,217.163
0.132,-1.724,-0.090,-180.786,133.484,325.867
-0.099,-1.062,-0.286,-121.338,138.245,454.224
-0.253,-0.186,-0.430,-35.461,125.854,552.795
-0.358,0.524,-0.536,33.997,97.717,592.896
-0.322,0.812,-0.597,72.754,58.044,606.750
-0.305,1.216,-0.494,81.543,6.592,600.891
-0.244,1.688,-0.256,117.249,-48.889,552.795
-0.030,1.881,0.019,180.725,-95.276,477.966
0.053,2.034,0.384,196.106,-120.605,404.968
0.278,2.238,0.652,166.809,-113.953,313.110
0.470,2.273,0.795,141.541,-78.613,204.468
0.506,2.076,0.867,94.055,-32.349,91.248
0.479,1.649,0.805,44.800,17.212,-0.427
0.490,1.347,0.622,33.264,60.242,-43.640
0.522,1.249,0.411,44.495,85.693,-55.237
0.543,1.219,0.235,56.091,89.966,-60.059
0.563,1.203,0.136,51.270,75.928,-66.895
0.575,1.177,0.134,38.940,48.218,-74.951
0.573,1.155,0.230,27.283,15.625,-81.299
0.558,1.145,0.359,17.822,-8.789,-86.548
0.544,1.139,0.459,7.324,-19.226,-93.018
0.525,1.112,0.494,-2.930,-16.602,-102.722
0.505,1.084,0.471,-10.193,-7.263,-114.075
0.488,1.052,0.414,-13.733,1.648,-125.671
0.491,0.986,0.342,-16.235,9.949,-139.465
0.495,0.896,0.277,-20.203,15.930,-154.419
0.510,0.771,0.215,-20.630,18.066,-167.847
0.537,0.659,0.154,-20.630,17.822,-177.307
0.572,0.573,0.095,-18.860,15.869,-182.983
0.609,0.484,0.053,-12.817,9.949,-186.890
0.644,0.416,0.049,-10.376,-0.854,-188.110
0.685,0.375,0.068,-8.484,-13.306,-186.890
0.726,0.315,0.107,-2.380,-25.024,-186.279
0.759,0.272,0.156,4.211,-32.471,-184.998
0.786,0.230,0.188,14.709,-35.828,-182.983
0.799,0.180,0.199,26.123,-34.607,-180.725
0.801,0.130,0.220,32.227,-30.090,-175.659
0.829,0.119,0.215,37.476,-22.827,-167.175
0.850,0.100,0.195,46.753,-16.907,-160.828
0.868,0.098,0.177,51.270,-13.123,-156.982
0.867,0.068,0.162,50.598,-10.620,-155.762
0.881,-0.002,0.170,41.260,-8.911,-152.405
0.893,-0.037,0.199,28.503,-7.141,-142.456

1.035,-0.445,0.372,-6.714,65.979,6.042
1.086,-0.543,0.401,-11.963,72.876,13.977
1.161,-0.639,0.445,-20.874,79.468,12.817
1.202,-0.915,0.475,-28.442,86.304,3.662
1.231,-1.209,0.505,-57.434,97.473,19.165
1.182,-1.420,0.515,-105.042,116.699,54.260
1.073,-1.639,0.425,-136.230,144.043,92.712
0.839,-1.779,0.233,-161.926,174.255,143.616
0.582,-1.781,0.017,-187.012,198.425,224.182
0.331,-1.627,-0.211,-151.489,205.383,323.425
0.094,-1.074,-0.430,-81.055,196.960,431.396
-0.056,-0.292,-0.592,-39.246,180.542,511.841
-0.129,0.282,-0.763,-10.254,151.550,539.246
-0.133,0.638,-0.835,11.780,106.567,529.480
-0.190,0.917,-0.793,19.592,42.786,516.296
-0.085,1.122,-0.623,21.423,-19.409,500.366
0.005,1.522,-0.328,48.035,-68.970,438.354
0.129,1.603,-0.075,93.140,-94.055,344.116
0.205,1.658,0.164,82.947,-91.980,261.414
0.349,1.538,0.293,81.482,-76.355,186.829
0.417,1.508,0.422,89.783,-59.326,137.024
0.500,1.618,0.504,97.046,-41.565,108.093
0.562,1.724,0.537,97.778,-21.118,79.102
0.596,1.745,0.505,87.891,1.648,40.344
0.599,1.693,0.410,74.036,23.499,-1.953
0.585,1.582,0.272,64.270,39.917,-37.842
0.578,1.468,0.125,54.749,46.448,-63.843
0.585,1.350,0.007,43.457,40.100,-83.374
0.586,1.224,-0.037,34.058,21.057,-98.816
0.593,1.130,0.009,24.719,-5.493,-109.070
0.591,1.081,0.113,17.578,-32.104,-114.807
0.573,1.063,0.216,11.780,-51.025,-119.080
0.572,1.066,0.286,2.625,-58.838,-125.000
0.573,1.043,0.322,-3.906,-58.960,-136.292
0.562,0.966,0.333,-6.409,-54.565,-153.015
0.556,0.870,0.319,-6.897,-46.021,-169.189
0.568,0.772,0.284,-4.517,-35.828,-181.885
0.592,0.662,0.233,2.014,-27.649,-193.298
0.617,0.537,0.187,9.888,-23.132,-204.102
0.650,0.421,0.148,18.250,-22.888,-211.365
0.685,0.320,0.116,27.527,-24.170,-212.830
0.677,0.244,0.088,38.147,-26.611,-210.327
0.724,0.206,0.036,42.358,-28.748,-201.538
0.814,0.124,0.042,37.109,-27.832,-191.284
0.815,0.034,0.081,35.950,-25.696,-187.195
0.822,-0.003,0.097,41.138,-21.912,-177.795
0.833,-0.004,0.094,48.218,-16.541,-162.292
0.862,-0.000,0.071,48.340,-13.489,-146.606
0.880,-0.020,0.077,39.246,-14.343,-136.719
0.875,-0.057,0.092,31.372,-19.043,-133.179

1.047,-0.530,0.349,-19.531,23.865,42.297
1.077,-0.676,0.355,-24.780,28.015,43.518
1.100,-0.907,0.337,-33.936,33.020,35.339
1.081,-1.207,0.301,-58.777,41.199,42.664
1.049,-1.455,0.241,-96.619,53.955,72.327
0.852,-1.604,0.160,-149.231,73.120,123.657
0.611,-1.630,0.014,-182.190,95.764,179.443
0.348,-1.590,-0.208,-169.800,115.662,254.395
0.071,-1.258,-0.440,-130.920,117.554,353.699
-0.087,-0.593,-0.595,-62.012,92.957,456.421
-0.203,0.172,-0.632,0.854,50.293,521.423
-0.243,0.735,-0.637,45.410,-3.418,548.462
-0.219,1.048,-0.549,56.580,-62.744,565.491
-0.112,1.497,-0.338,51.697,-122.742,539.368
0.005,1.707,-0.114,92.346,-174.133,454.651
0.156,1.799,0.153,110.229,-210.754,373.535
0.330,1.942,0.436,66.650,-225.952,283.936
0.391,1.772,0.710,34.607,-220.398,180.603
0.428,1.453,0.900,28.809,-196.838,98.633
0.496,1.277,1.019,29.053,-163.452,59.204
0.536,1.237,1.099,36.499,-126.892,43.579
0.556,1.249,1.130,49.133,-90.698,31.189
0.563,1.257,1.135,54.260,-58.105,15.869
0.549,1.266,1.131,50.842,-31.494,0.732
0.540,1.296,1.110,46.265,-9.399,-12.207
0.536,1.315,1.063,42.053,9.583,-25.818
0.527,1.306,0.996,37.415,26.978,-42.053
0.505,1.266,0.912,31.616,41.687,-60.364
0.480,1.223,0.821,24.109,52.856,-77.576
0.469,1.172,0.725,18.799,61.096,-93.872
0.459,1.114,0.643,14.038,67.444,-109.741
0.449,1.040,0.558,10.925,72.815,-124.756
0.439,0.961,0.476,7.507,76.538,-138.306
0.454,0.882,0.390,3.723,78.308,-150.940
0.477,0.785,0.311,1.282,77.271,-163.086
0.476,0.698,0.266,-0.549,72.632,-172.607
0.504,0.626,0.244,1.160,65.247,-179.138
0.540,0.551,0.234,4.150,56.641,-184.387
0.568,0.465,0.233,6.592,48.950,-190.613
0.613,0.378,0.235,8.484,43.030,-195.068
0.651,0.251,0.232,12.939,37.354,-197.083
0.682,0.164,0.259,13.611,32.715,-195.618
0.722,0.118,0.283,15.198,29.663,-188.171
0.760,0.065,0.284,26.367,29.114,-179.138
0.780,0.034,0.280,33.997,31.372,-170.044
0.806,0.013,0.264,38.086,34.363,-161.255
0.822,-0.020,0.239,43.762,36.804,-153.748
0.838,-0.056,0.217,46.631,38.452,-146.484
0.852,-0.079,0.207,45.105,37.231,-138.794
0.867,-0.090,0.204,42.542,32.410,-130.066

1.101,-0.625,0.308,-37.292,26.245,27.832
1.192,-0.801,0.348,-44.922,21.240,19.165
1.235,-1.208,0.365,-52.734,17.578,2.075
1.226,-1.564,0.389,-97.046,20.691,14.160
1.026,-1.823,0.403,-167.603,39.429,56.152
0.708,-1.919,0.359,-221.375,69.519,117.188
0.308,-1.848,0.202,-229.248,107.300,199.280
0.041,-1.566,-0.096,-195.312,139.832,314.758
-0.131,-0.828,-0.367,-122.009,143.188,451.416
-0.285,0.064,-0.512,-37.537,118.469,549.927
-0.299,0.707,-0.588,25.513,74.707,594.177
-0.315,0.980,-0.576,67.871,16.174,614.563
-0.262,1.225,-0.421,72.266,-49.072,612.976
-0.157,1.655,-0.180,85.999,-107.666,547.363
-0.043,1.817,0.113,133.423,-154.175,473.206
0.068,1.974,0.447,141.663,-184.814,400.879
0.244,2.152,0.748,123.596,-189.941,324.219
0.308,2.206,1.005,98.389,-168.396,236.084
0.406,2.255,1.156,58.044,-121.460,143.921
0.418,2.080,1.165,19.531,-59.937,48.523
0.414,1.738,1.008,6.714,0.977,-29.846
0.451,1.414,0.749,12.207,47.302,-78.003
0.469,1.177,0.526,20.752,68.359,-102.783
0.496,1.026,0.390,27.588,62.622,-112.244
0.504,0.952,0.359,30.579,39.917,-114.197
0.517,0.911,0.417,29.419,13.245,-113.953
0.517,0.886,0.510,26.550,-4.578,-114.929
0.513,0.871,0.582,20.508,-10.010,-116.333
0.513,0.871,0.606,11.963,-3.845,-117.188
0.509,0.876,0.585,7.202,8.362,-119.507
0.511,0.881,0.522,5.615,23.132,-124.695
0.511,0.872,0.434,6.165,35.400,-134.583
0.523,0.833,0.330,7.690,43.579,-148.560
0.556,0.754,0.234,9.399,45.532,-163.879
0.589,0.624,0.178,9.888,41.321,-178.589
0.613,0.476,0.164,9.277,31.555,-189.758
0.670,0.310,0.170,10.681,19.104,-196.350
0.711,0.156,0.193,11.780,7.385,-195.801
0.737,0.057,0.228,10.193,0.000,-186.096
0.769,0.026,0.256,12.146,-3.723,-169.006
0.800,0.028,0.276,21.667,-5.493,-150.024
0.829,0.057,0.284,29.358,-5.310,-133.362
0.837,0.095,0.284,33.447,-4.700,-122.314
0.870,0.091,0.275,36.743,-4.883,-116.821
0.870,0.072,0.279,35.645,-6.897,-113.892
0.883,0.064,0.292,33.081,-10.864,-109.741
0.899,0.042,0.313,34.241,-16.052,-104.675
0.909,0.024,0.349,33.569,-19.531,-98.633
0.912,0.021,0.389,32.471,-20.081,-91.187
0.912,0.008,0.421,35.339,-17.761,-83.923

1.011,-0.328,0.487,-10.925,16.113,24.109
1.064,-0.472,0.567,-18.616,20.081,31.128
1.150,-0.578,0.669,-31.433,29.297,29.358
1.169,-0.899,0.730,-43.579,45.532,19.287
1.182,-1.238,0.778,-75.562,72.083,32.898
1.177,-1.593,0.737,-106.445,109.436,67.871
0.944,-1.823,0.662,-139.099,153.076,133.423
0.685,-1.836,0.514,-172.485,200.623,203.674
0.331,-1.803,0.247,-162.781,246.887,278.320
-0.017,-1.420,-0.144,-129.211,277.161,373.657
-0.218,-0.618,-0.558,-41.504,269.592,481.445
-0.304,0.421,-0.804,44.006,216.248,557.556
-0.291,1.038,-0.886,74.280,134.827,597.351
-0.159,1.825,-0.693,53.345,42.542,598.022
0.004,2.276,-0.394,78.064,-38.696,480.225
0.163,2.437,0.035,94.543,-95.459,346.191
0.308,2.299,0.436,49.500,-113.525,217.346
0.415,1.881,0.687,30.518,-98.206,109.253
0.531,1.570,0.761,19.958,-65.247,46.387
0.582,1.367,0.691,17.700,-27.954,12.695
0.557,1.329,0.528,16.602,5.737,-6.714
0.576,1.327,0.297,25.757,33.325,-26.123
0.572,1.278,0.116,38.025,42.664,-50.354
0.611,1.174,0.036,45.105,29.602,-74.890
0.627,1.036,0.070,44.922,4.517,-93.201
0.631,0.929,0.173,40.405,-20.691,-100.830
0.623,0.908,0.294,32.349,-38.879,-98.877
0.621,0.955,0.371,25.635,-45.593,-94.238
0.612,0.998,0.393,21.240,-44.189,-96.069
0.607,1.006,0.383,12.085,-39.612,-104.797
0.596,0.978,0.367,2.441,-35.950,-117.310
0.584,0.930,0.346,-0.977,-33.264,-130.554
0.574,0.890,0.315,1.099,-31.067,-144.104
0.578,0.851,0.256,7.446,-28.198,-158.325
0.578,0.793,0.198,10.681,-25.574,-173.523
0.609,0.702,0.138,10.437,-24.292,-188.904
0.659,0.547,0.102,10.559,-25.208,-203.979
0.658,0.400,0.121,4.395,-27.466,-211.609
0.677,0.280,0.152,2.808,-29.297,-211.182
0.734,0.181,0.193,5.676,-32.837,-204.773
0.782,0.089,0.248,2.869,-35.828,-195.984
0.812,0.015,0.320,-1.038,-35.034,-186.890
0.840,-0.039,0.367,1.526,-30.090,-175.964
0.861,-0.064,0.373,7.141,-19.958,-163.818
0.876,-0.059,0.343,11.475,-8.362,-153.015
0.886,-0.049,0.288,16.052,-1.221,-145.386
0.885,-0.043,0.240,19.348,0.793,-140.320
0.883,-0.059,0.209,23.193,-1.038,-138.550
0.931,-0.116,0.194,25.024,-7.080,-138.672
0.933,-0.176,0.233,20.508,-13.489,-135.254

0.985,-0.447,0.415,-20.935,16.052,47.363
1.010,-0.492,0.427,-26.855,25.024,56.091
1.009,-0.563,0.451,-36.011,37.109,61.890
0.999,-0.660,0.492,-54.626,52.795,77.087
1.002,-0.760,0.469,-67.993,76.782,100.525
0.993,-0.859,0.416,-78.064,100.769,131.470
0.984,-0.937,0.323,-96.985,118.164,168.213
0.929,-0.922,0.247,-122.253,127.563,207.886
0.848,-0.963,0.144,-136.841,133.545,240.845
0.719,-0.987,0.029,-156.433,138.672,273.010
0.567,-0.950,-0.078,-180.725,139.404,314.636
0.397,-0.889,-0.181,-193.726,134.583,366.577
0.212,-0.735,-0.278,-192.017,124.329,422.913
-0.021,-0.443,-0.378,-168.152,111.206,474.121
-0.185,-0.022,-0.464,-125.854,92.773,514.282
-0.304,0.501,-0.493,-76.111,65.063,542.542
-0.297,0.929,-0.456,-30.029,25.696,558.716
-0.221,1.237,-0.309,-11.108,-22.949,571.777
-0.153,1.800,-0.015,-2.563,-64.026,534.119
-0.000,2.028,0.196,59.570,-83.496,462.646
0.083,2.274,0.460,70.190,-84.656,392.090
0.211,2.411,0.611,56.458,-64.575,311.218
0.366,2.419,0.640,50.415,-30.334,214.722
0.461,2.273,0.607,17.578,4.578,106.262
0.442,1.803,0.558,-12.573,33.813,1.465
0.440,1.399,0.505,-19.348,54.321,-61.035
0.443,1.235,0.438,2.075,69.397,-82.947
0.467,1.204,0.333,33.813,81.116,-89.417
0.466,1.221,0.213,44.189,87.952,-95.825
0.442,1.229,0.085,41.809,87.524,-106.567
0.441,1.228,-0.027,37.903,77.454,-118.286
0.431,1.234,-0.077,31.433,55.908,-129.272
0.420,1.224,-0.077,27.527,30.640,-142.090
0.413,1.184,-0.062,24.963,8.179,-157.410
0.407,1.139,-0.032,18.616,-10.925,-174.744
0.393,1.096,-0.013,20.020,-27.405,-194.275
0.388,1.024,-0.008,31.616,-41.443,-217.529
0.408,0.918,0.011,43.579,-55.969,-241.821
0.441,0.738,0.054,54.871,-70.313,-265.564
0.464,0.534,0.131,60.730,-78.125,-283.691
0.508,0.359,0.198,64.514,-74.829,-287.354
0.574,0.223,0.204,73.853,-60.730,-280.212
0.645,0.121,0.179,81.604,-42.969,-266.907
0.693,0.085,0.171,78.857,-28.748,-244.507
0.723,0.105,0.139,78.918,-16.724,-218.079
0.749,0.148,0.089,79.468,-8.606,-198.181
0.805,0.185,0.045,74.707,-7.751,-186.768
0.808,0.181,0.050,67.871,-14.465,-181.152
0.797,0.155,0.082,61.768,-24.902,-179.199
0.810,0.101,0.118,60.913,-34.912,-180.237

0.972,-0.463,0.428,-25.635,9.277,30.640
1.001,-0.535,0.447,-38.513,15.991,41.077
1.047,-0.586,0.455,-50.232,24.780,46.875
1.069,-0.763,0.472,-68.481,35.217,48.462
1.075,-0.998,0.498,-104.858,44.189,69.153
1.066,-1.202,0.522,-151.672,56.396,103.821
1.045,-1.334,0.529,-196.533,77.393,144.226
0.922,-1.443,0.500,-229.187,105.591,185.364
0.726,-1.380,0.442,-260.620,141.785,234.802
0.450,-1.257,0.290,-276.306,187.317,290.405
0.221,-1.017,0.108,-265.747,228.455,355.530
0.028,-0.466,-0.079,-205.627,249.451,431.091
-0.041,0.153,-0.332,-79.224,250.427,481.384
-0.032,0.662,-0.598,26.794,222.900,501.221
0.000,1.061,-0.705,51.819,164.612,516.296
0.102,1.508,-0.617,56.213,86.914,489.258
0.183,1.749,-0.435,103.455,8.423,404.114
0.270,1.919,-0.117,112.549,-55.908,325.989
0.469,2.096,0.209,68.542,-89.294,242.676
0.466,1.987,0.482,55.969,-91.492,144.470
0.536,1.750,0.614,50.476,-68.298,56.152
0.539,1.552,0.638,38.696,-31.372,-3.906
0.602,1.404,0.512,43.091,8.118,-45.044
0.621,1.201,0.354,55.237,36.255,-78.186
0.628,1.080,0.232,53.223,45.349,-98.755
0.651,0.988,0.133,58.228,41.626,-111.389
0.670,0.956,0.089,63.538,27.954,-118.408
0.678,0.951,0.091,63.538,7.629,-122.864
0.673,0.940,0.116,62.012,-13.062,-130.249
0.687,0.914,0.147,59.204,-32.166,-140.259
0.687,0.855,0.174,57.129,-50.232,-153.259
0.645,0.796,0.199,49.011,-66.650,-166.687
0.615,0.745,0.209,41.748,-79.712,-179.382
0.607,0.689,0.231,41.016,-89.539,-192.566
0.644,0.611,0.257,45.471,-94.910,-204.895
0.664,0.502,0.295,45.837,-92.834,-214.172
0.727,0.378,0.335,43.274,-83.435,-218.994
0.778,0.204,0.363,47.363,-68.787,-217.529
0.796,0.062,0.382,47.119,-49.133,-208.008
0.826,-0.057,0.367,43.762,-27.344,-192.871
0.830,-0.106,0.339,41.321,-6.287,-173.218
0.856,-0.109,0.285,42.114,7.629,-151.062
0.871,-0.066,0.252,42.603,12.329,-130.371
0.861,-0.008,0.252,40.039,9.033,-115.601
0.845,0.012,0.267,39.001,2.502,-110.168
0.855,-0.010,0.275,38.147,-2.380,-111.389
0.854,-0.105,0.315,29.297,-7.507,-108.643
0.907,-0.103,0.310,33.081,-15.259,-91.248
0.961,-0.130,0.297,50.293,-19.897,-83.313
0.970,-0.112,0.307,42.786,-18.982,-78.796

0.972,-0.432,0.432,-19.226,9.644,31.433
1.012,-0.535,0.435,-21.545,15.686,40.222
1.052,-0.631,0.441,-29.785,25.085,44.800
1.062,-0.823,0.442,-44.434,38.330,51.270
1.074,-1.104,0.392,-59.753,54.688,74.463
1.005,-1.343,0.328,-83.801,75.745,110.962
0.924,-1.505,0.239,-117.554,96.863,163.757
0.756,-1.586,0.126,-140.869,115.845,224.731
0.527,-1.563,-0.016,-155.212,134.583,286.804
0.260,-1.434,-0.183,-168.640,146.606,356.445
0.093,-1.101,-0.309,-162.659,140.198,434.021
0.004,-0.644,-0.399,-104.126,113.403,500.305
-0.113,-0.109,-0.436,-47.424,71.228,541.199
-0.188,0.378,-0.409,-12.634,24.597,551.941
-0.240,0.715,-0.303,14.099,-25.269,547.119
-0.187,1.012,-0.073,39.612,-76.172,544.922
-0.096,1.589,0.315,77.209,-120.789,505.920
-0.015,1.944,0.731,124.573,-146.240,426.697
0.099,2.250,1.088,124.023,-136.414,346.436
0.194,2.341,1.277,105.164,-91.064,257.080
0.292,2.286,1.254,81.299,-27.649,169.617
0.327,2.075,1.071,51.025,31.555,90.576
0.335,1.805,0.808,25.085,73.425,28.198
0.345,1.599,0.546,20.447,91.431,-17.212
0.361,1.458,0.370,31.250,84.167,-48.950
0.404,1.371,0.304,39.673,57.495,-70.740
0.410,1.280,0.332,40.527,24.414,-89.172
0.416,1.180,0.395,35.339,-2.563,-105.103
0.435,1.102,0.467,27.283,-20.386,-116.760
0.422,1.067,0.521,23.071,-31.555,-124.084
0.433,1.055,0.543,22.705,-36.194,-131.226
0.444,1.005,0.534,18.982,-37.415,-140.991
0.451,0.935,0.505,5.615,-36.499,-152.222
0.457,0.864,0.470,-4.761,-32.593,-164.185
0.469,0.810,0.420,-8.423,-27.344,-174.377
0.485,0.774,0.371,-8.972,-23.193,-184.448
0.485,0.734,0.331,-8.728,-21.118,-196.045
0.560,0.671,0.269,-7.935,-20.081,-208.984
0.578,0.585,0.252,-8.484,-19.348,-219.421
0.599,0.495,0.262,-7.690,-18.921,-223.877
0.607,0.411,0.276,0.488,-18.005,-223.633
0.647,0.358,0.311,8.484,-16.663,-218.811
0.663,0.322,0.356,12.390,-14.771,-211.670
0.654,0.292,0.389,17.578,-10.681,-206.604
0.654,0.271,0.396,23.010,-3.967,-203.674
0.691,0.217,0.397,26.917,0.427,-204.712
0.708,0.119,0.398,27.344,0.793,-208.069
0.730,0.013,0.386,27.527,1.038,-209.595
0.781,-0.074,0.361,30.334,1.953,-207.031
0.839,-0.166,0.338,36.072,1.282,-200.012

0.916,-0.349,0.423,17.456,6.104,-29.907
0.897,-0.329,0.412,19.775,8.606,-21.606
0.899,-0.301,0.396,20.691,9.033,-14.404
0.880,-0.263,0.398,18.921,7.935,-9.033
0.887,-0.207,0.409,17.822,6.653,-5.554
0.899,-0.196,0.420,20.142,4.822,-6.592
0.902,-0.200,0.422,16.235,3.906,-9.399
0.898,-0.229,0.414,11.475,4.456,-11.780
0.904,-0.263,0.397,7.324,4.822,-12.085
0.909,-0.283,0.384,3.906,3.967,-9.155
0.905,-0.269,0.390,1.526,1.404,-3.540
0.906,-0.250,0.406,2.258,-1.526,1.221
0.898,-0.213,0.437,1.831,-3.113,5.371
0.907,-0.192,0.451,3.235,-2.563,7.507
0.902,-0.158,0.468,3.784,-0.366,8.362
0.896,-0.136,0.469,6.226,1.770,7.935
0.899,-0.125,0.464,9.155,3.662,5.432
0.894,-0.132,0.453,8.911,4.639,1.770
0.895,-0.160,0.435,7.874,4.700,-1.465
0.905,-0.193,0.416,4.761,4.089,-3.357
0.891,-0.204,0.413,1.587,3.052,-2.502
0.892,-0.200,0.410,0.977,1.160,-0.244
0.893,-0.180,0.416,-0.549,-0.122,2.563
0.889,-0.159,0.426,-2.441,-0.793,4.211
0.888,-0.138,0.439,-2.136,-0.671,3.967
0.892,-0.118,0.448,-0.916,-0.061,3.113
0.893,-0.110,0.443,1.953,2.258,1.465
0.897,-0.115,0.425,3.479,5.554,-0.854
0.896,-0.134,0.409,3.540,7.385,-3.113
0.900,-0.168,0.392,3.723,6.531,-4.883
0.905,-0.195,0.389,1.099,5.493,-4.272
0.898,-0.199,0.401,-1.343,3.845,-1.709
0.896,-0.195,0.418,0.183,1.160,0.427
0.903,-0.175,0.435,-0.366,-0.366,2.319
0.901,-0.172,0.451,-0.549,-0.793,2.197
0.903,-0.171,0.456,-0.732,0.122,1.099
0.892,-0.154,0.452,-0.183,2.319,0.916
0.898,-0.130,0.437,2.625,4.395,1.099
0.895,-0.115,0.425,4.028,5.310,0.183
0.891,-0.116,0.418,2.930,5.798,-1.465
0.892,-0.132,0.410,2.197,6.165,-3.723
0.889,-0.157,0.400,0.916,6.042,-6.042
0.889,-0.169,0.396,-0.732,6.165,-6.592
0.895,-0.184,0.387,-0.916,5.493,-5.676
0.896,-0.189,0.388,-0.977,4.272,-5.005
0.897,-0.193,0.388,-0.549,2.930,-4.150
0.901,-0.200,0.389,0.061,1.892,-3.723
0.907,-0.209,0.395,-0.061,0.977,-3.601
0.903,-0.219,0.403,-0.183,0.122,-3.052
0.905,-0.222,0.407,0.366,-0.244,-1.709

0.960,-0.434,0.511,-10.864,15.808,31.799
0.976,-0.486,0.538,-14.221,24.658,44.739
1.011,-0.530,0.553,-15.259,36.926,57.312
1.059,-0.642,0.558,-17.517,49.500,64.453
1.046,-0.846,0.591,-34.302,63.721,74.646
1.036,-1.130,0.588,-60.852,82.825,94.299
0.968,-1.326,0.547,-98.633,107.361,130.249
0.826,-1.413,0.446,-136.292,136.780,188.538
0.656,-1.365,0.283,-158.569,168.640,256.287
0.486,-1.113,0.101,-166.565,190.186,333.252
0.378,-0.742,-0.077,-145.935,195.862,401.733
0.289,-0.315,-0.228,-109.009,184.875,446.777
0.211,0.086,-0.344,-70.068,161.133,466.614
0.142,0.413,-0.397,-36.377,130.127,466.675
0.112,0.722,-0.370,-13.123,91.370,462.341
0.138,0.962,-0.268,10.071,44.556,461.731
0.181,1.301,-0.078,27.893,1.526,437.683
0.284,1.626,0.095,38.086,-24.353,370.056
0.373,1.734,0.222,36.438,-32.349,290.588
0.415,1.730,0.308,10.376,-30.640,214.478
0.438,1.630,0.389,-10.498,-25.146,148.499
0.491,1.551,0.440,-13.977,-17.212,102.112
0.514,1.494,0.473,-7.690,-8.545,66.833
0.536,1.433,0.441,0.916,2.808,33.081
0.544,1.385,0.362,8.606,14.954,1.526
0.511,1.351,0.285,21.729,21.240,-27.100
0.479,1.368,0.227,39.001,19.287,-52.185
0.481,1.401,0.186,54.749,9.888,-75.500
0.438,1.432,0.155,65.674,-4.150,-102.173
0.446,1.428,0.104,74.707,-19.653,-135.254
0.402,1.376,0.050,78.064,-40.039,-173.218
0.391,1.282,0.021,74.280,-67.383,-213.318
0.336,1.123,0.038,75.562,-101.685,-255.249
0.339,0.897,0.101,77.942,-134.094,-291.748
0.438,0.600,0.220,70.862,-153.259,-314.148
0.508,0.445,0.406,54.810,-151.733,-312.317
0.607,0.286,0.514,53.833,-131.470,-297.729
0.688,0.138,0.561,48.584,-99.304,-279.785
0.746,0.016,0.540,37.354,-61.584,-256.409
0.784,-0.067,0.484,31.372,-25.696,-229.614
0.817,-0.102,0.418,28.809,-0.122,-199.341
0.821,-0.088,0.360,31.677,13.855,-169.556
0.843,-0.033,0.319,36.011,19.226,-145.386
0.872,0.021,0.292,38.208,19.775,-129.333
0.881,0.051,0.288,36.804,19.043,-119.934
0.876,0.067,0.289,32.654,18.799,-113.831
0.865,0.047,0.275,32.227,19.226,-111.389
0.858,0.026,0.262,29.541,19.409,-110.596
0.862,-0.014,0.253,27.649,16.052,-110.291
0.874,-0.076,0.249,26.062,11.597,-110.107

0.943,-0.373,0.417,8.972,-16.968,-27.649
0.944,-0.356,0.438,8.484,-15.747,-17.212
0.945,-0.347,0.442,11.841,-14.465,-7.385
0.929,-0.318,0.446,12.695,-10.986,1.160
0.924,-0.274,0.450,12.207,-6.287,9.705
0.910,-0.228,0.445,13.367,-2.319,17.212
0.896,-0.184,0.438,12.695,2.014,21.545
0.889,-0.152,0.421,10.315,7.446,22.461
0.887,-0.125,0.403,7.141,12.329,20.874
0.884,-0.102,0.375,4.211,14.099,17.700
0.899,-0.103,0.345,1.526,11.108,11.902
0.896,-0.120,0.351,-1.648,3.601,6.226
0.899,-0.143,0.372,-3.662,-3.052,3.723
0.916,-0.158,0.404,-2.502,-8.301,3.296
0.916,-0.148,0.446,-1.160,-10.254,5.920
0.912,-0.120,0.473,1.892,-7.996,8.911
0.917,-0.088,0.476,6.348,-3.845,10.620
0.906,-0.074,0.463,8.545,0.671,9.338
0.896,-0.054,0.449,7.446,5.066,6.653
0.894,-0.054,0.428,9.277,7.507,3.723
0.902,-0.063,0.411,8.972,7.263,0.122
0.902,-0.079,0.402,5.310,5.737,-3.479
0.908,-0.111,0.397,3.052,3.845,-6.775
0.919,-0.145,0.392,1.343,1.526,-8.362
0.908,-0.166,0.400,-1.282,-0.610,-7.690
0.908,-0.162,0.413,-1.831,-1.831,-5.005
0.915,-0.152,0.418,0.183,-2.441,-2.258
0.910,-0.128,0.427,1.343,-2.197,-0.488
0.905,-0.105,0.429,1.526,-1.099,0.366
0.903,-0.105,0.425,3.052,0.610,-0.854
0.907,-0.118,0.419,1.953,2.686,-2.075
0.903,-0.133,0.411,0.061,4.700,-2.869
0.903,-0.139,0.402,-1.099,5.310,-2.258
0.903,-0.146,0.387,-0.427,4.456,-1.648
0.903,-0.151,0.382,-0.427,3.113,-1.526
0.909,-0.161,0.389,-0.977,1.282,-1.648
0.911,-0.169,0.407,-1.282,-0.671,-1.404
0.910,-0.168,0.421,-0.854,-1.404,-0.854
0.908,-0.159,0.426,-0.122,-0.854,0.427
0.905,-0.140,0.431,0.488,0.000,1.587
0.901,-0.125,0.434,1.953,0.549,1.953
0.904,-0.115,0.434,2.563,1.038,0.916
0.914,-0.118,0.425,2.075,1.831,-0.793
0.911,-0.130,0.418,0.366,3.479,-1.160
0.905,-0.139,0.406,-0.122,5.005,-1.099
0.907,-0.150,0.392,0.427,4.761,-0.793
0.903,-0.149,0.392,-0.610,3.479,0.183
0.904,-0.149,0.398,-1.526,1.770,1.160
0.905,-0.147,0.407,-1.465,0.183,1.892
0.904,-0.144,0.411,-1.587,-0.305,2.380

0.976,-0.423,0.512,-14.221,24.353,26.306
1.028,-0.557,0.537,-20.020,31.555,38.818
1.103,-0.716,0.584,-28.687,41.931,46.326
1.131,-0.976,0.663,-47.607,56.213,49.255
1.086,-1.261,0.713,-77.759,76.416,72.388
0.977,-1.445,0.705,-110.046,111.328,120.178
0.848,-1.539,0.596,-130.432,154.602,189.331
0.667,-1.540,0.393,-142.883,201.172,259.460
0.435,-1.285,0.194,-154.541,237.610,340.393
0.222,-0.831,-0.015,-125.061,253.906,417.358
0.097,-0.357,-0.227,-46.631,251.770,472.717
0.017,0.160,-0.333,13.916,227.539,504.700
-0.048,0.650,-0.361,49.072,184.753,516.846
-0.009,0.982,-0.333,71.228,130.554,525.513
0.135,1.480,-0.142,75.562,73.303,507.507
0.126,1.754,0.026,93.079,29.480,430.664
0.221,1.963,0.145,72.144,8.423,355.835
0.328,2.036,0.187,28.992,12.329,265.869
0.428,1.867,0.158,18.433,18.616,167.114
0.427,1.530,0.230,7.263,13.977,92.712
0.464,1.468,0.297,2.991,5.920,56.335
0.522,1.371,0.312,29.724,6.348,26.428
0.500,1.379,0.320,34.851,10.803,-0.183
0.511,1.346,0.265,39.795,18.311,-28.687
0.506,1.287,0.198,41.504,20.569,-54.810
0.499,1.244,0.143,33.142,15.991,-75.989
0.498,1.194,0.099,31.860,8.057,-94.727
0.506,1.152,0.073,32.166,-1.282,-111.267
0.516,1.085,0.061,32.959,-12.207,-127.747
0.537,0.993,0.060,33.203,-24.170,-144.104
0.554,0.903,0.072,28.442,-37.598,-157.043
0.564,0.816,0.084,25.818,-50.415,-166.931
0.572,0.733,0.084,26.672,-61.462,-175.232
0.545,0.689,0.073,28.381,-73.181,-181.580
0.531,0.689,0.048,27.832,-88.379,-184.448
0.557,0.669,0.040,30.029,-105.957,-193.237
0.557,0.587,0.098,36.987,-125.000,-209.412
0.560,0.493,0.190,32.837,-136.597,-217.590
0.664,0.415,0.239,31.677,-136.230,-221.924
0.784,0.298,0.302,30.701,-126.709,-224.915
0.774,0.167,0.380,24.109,-112.854,-228.088
0.809,0.035,0.408,16.052,-95.825,-221.924
0.849,-0.062,0.424,9.521,-75.806,-205.444
0.885,-0.131,0.427,8.789,-57.434,-183.350
0.909,-0.172,0.436,16.235,-43.579,-159.180
0.923,-0.188,0.441,24.963,-33.081,-135.071
0.926,-0.169,0.442,29.236,-23.499,-112.366
0.923,-0.118,0.430,31.250,-14.587,-92.957
0.925,-0.068,0.409,33.691,-7.690,-79.285
0.937,-0.040,0.390,35.217,-4.333,-72.510

0.997,-0.348,0.506,-22.827,34.912,34.241
1.014,-0.409,0.557,-35.461,43.884,51.270
1.079,-0.559,0.594,-32.959,54.993,63.660
1.120,-0.695,0.642,-37.231,68.481,69.336
1.095,-0.943,0.685,-55.054,89.355,86.182
1.037,-1.127,0.725,-77.820,117.249,118.530
0.973,-1.356,0.664,-87.280,148.865,161.682
0.813,-1.519,0.537,-108.459,187.744,212.036
0.509,-1.483,0.354,-140.320,232.483,286.438
0.211,-1.113,0.137,-139.587,269.409,382.080
0.022,-0.473,-0.120,-66.528,288.391,471.191
-0.077,0.197,-0.349,32.471,282.532,528.320
-0.135,0.730,-0.570,95.886,248.108,549.683
-0.131,1.149,-0.628,95.825,179.321,559.753
0.005,1.851,-0.460,94.971,93.262,512.329
0.049,2.050,-0.188,133.667,15.808,415.771
0.101,2.282,0.132,117.249,-31.372,321.411
0.259,2.325,0.328,84.778,-41.321,214.539
0.316,2.063,0.424,59.265,-31.921,104.248
0.313,1.745,0.471,23.193,-19.714,24.048
0.335,1.600,0.445,12.634,-7.507,-17.212
0.367,1.536,0.351,34.729,5.066,-45.288
0.391,1.546,0.250,40.649,10.559,-73.914
0.423,1.472,0.154,40.222,4.395,-110.046
0.433,1.356,0.103,38.818,-11.108,-146.362
0.447,1.212,0.088,37.598,-32.715,-174.988
0.446,1.072,0.111,38.269,-56.458,-194.702
0.462,0.956,0.163,33.447,-79.712,-205.200
0.472,0.847,0.222,27.893,-99.487,-211.609
0.478,0.741,0.275,21.851,-111.755,-214.783
0.496,0.646,0.318,15.808,-116.699,-214.600
0.511,0.594,0.336,11.963,-115.845,-211.792
0.526,0.573,0.324,11.963,-112.427,-209.290
0.501,0.537,0.312,12.939,-110.535,-207.764
0.586,0.512,0.318,1.953,-104.614,-199.646
0.701,0.497,0.329,1.709,-90.759,-193.726
0.714,0.414,0.333,24.109,-73.608,-198.120
0.725,0.352,0.349,24.841,-52.185,-199.829
0.759,0.315,0.331,19.043,-32.410,-195.740
0.786,0.265,0.304,15.137,-19.470,-190.063
0.796,0.191,0.281,10.803,-13.428,-188.660
0.808,0.100,0.273,9.583,-13.550,-188.171
0.830,0.017,0.292,11.597,-17.944,-183.838
0.833,-0.051,0.330,17.578,-23.193,-176.697
0.851,-0.089,0.369,25.269,-25.635,-167.480
0.875,-0.107,0.388,32.654,-23.865,-156.860
0.887,-0.114,0.397,38.208,-18.921,-147.400
0.883,-0.108,0.380,40.161,-13.611,-139.893
0.940,-0.145,0.351,32.959,-11.658,-132.324
0.954,-0.243,0.356,23.804,-12.024,-129.822

0.938,-0.388,0.375,9.644,-9.949,-62.622
0.926,-0.355,0.380,6.897,-12.024,-46.387
0.930,-0.315,0.381,3.296,-12.390,-34.119
0.930,-0.289,0.388,2.441,-13.611,-26.855
0.924,-0.269,0.402,2.441,-16.357,-22.095
0.921,-0.250,0.415,2.075,-18.127,-17.822
0.916,-0.231,0.427,2.075,-18.250,-13.916
0.903,-0.201,0.441,1.831,-16.235,-10.498
0.911,-0.169,0.449,3.723,-13.000,-7.935
0.921,-0.149,0.454,6.104,-10.681,-6.226
0.925,-0.147,0.455,5.859,-8.118,-5.249
0.904,-0.136,0.466,2.808,-2.869,-3.662
0.897,-0.134,0.463,4.517,1.709,-2.136
0.902,-0.128,0.455,7.690,6.104,-1.282
0.904,-0.122,0.442,6.775,8.484,-1.038
0.899,-0.129,0.430,5.371,8.728,-1.526
0.906,-0.133,0.424,3.540,7.202,-1.770
0.905,-0.131,0.422,3.296,4.395,-1.282
0.904,-0.112,0.429,2.625,1.648,-0.061
0.903,-0.086,0.433,2.197,-0.122,1.465
0.905,-0.058,0.437,2.380,-0.488,2.075
0.913,-0.049,0.427,3.601,-0.427,1.160
0.911,-0.062,0.413,4.333,0.122,-0.671
0.899,-0.071,0.410,2.319,0.488,-1.892
0.895,-0.086,0.412,2.075,-0.488,-2.930
0.898,-0.096,0.415,1.953,-2.014,-2.991
0.899,-0.102,0.421,0.793,-2.991,-2.563
0.902,-0.108,0.429,-1.282,-2.563,-2.136
0.891,-0.103,0.441,-3.418,-1.282,-1.343
0.891,-0.095,0.449,-3.418,-0.122,-0.366
0.894,-0.076,0.450,-2.869,1.465,0.854
0.896,-0.073,0.448,-1.282,3.113,-0.061
0.895,-0.082,0.442,-0.122,3.967,-2.014
0.896,-0.100,0.431,0.122,4.211,-4.517
0.903,-0.121,0.422,0.427,3.967,-5.920
0.895,-0.135,0.424,0.977,2.747,-5.920
0.893,-0.137,0.427,2.136,1.221,-4.944
0.908,-0.135,0.425,2.380,-0.061,-3.967
0.911,-0.134,0.428,1.282,-0.488,-2.869
0.906,-0.127,0.436,-0.610,0.366,-1.526
0.902,-0.126,0.434,0.000,1.221,-0.854
0.899,-0.115,0.436,-0.122,2.380,0.183
0.902,-0.119,0.431,0.122,2.563,0.061
0.904,-0.126,0.422,0.122,2.625,-0.427
0.902,-0.132,0.417,-0.366,2.136,-0.366
0.899,-0.137,0.422,0.488,0.793,0.122
0.906,-0.137,0.424,1.770,-0.488,0.854
0.899,-0.134,0.430,1.282,-1.282,1.587
0.896,-0.118,0.438,-0.427,-1.221,2.625
0.902,-0.107,0.449,-0.793,-0.732,3.357

0.982,-0.490,0.549,-27.954,28.687,36.682
1.024,-0.567,0.621,-39.307,36.316,46.936
1.058,-0.759,0.669,-42.358,48.767,46.509
1.087,-1.028,0.694,-59.143,64.453,60.913
1.050,-1.286,0.709,-79.590,83.496,87.036
0.963,-1.520,0.666,-93.140,108.582,122.437
0.854,-1.692,0.576,-106.140,144.348,181.641
0.625,-1.604,0.458,-119.446,184.387,267.883
0.322,-1.280,0.240,-97.351,222.412,362.976
0.111,-0.618,0.017,-52.368,247.620,452.209
0.019,0.133,-0.163,7.629,245.667,512.878
0.004,0.686,-0.299,59.387,215.759,537.476
0.058,0.971,-0.304,60.608,165.283,555.115
0.165,1.715,-0.159,64.514,113.464,496.704
0.172,1.967,-0.048,98.083,63.293,399.170
0.323,2.174,0.048,62.683,29.968,304.810
0.446,2.049,0.125,26.978,12.939,193.787
0.454,1.706,0.243,5.981,0.183,88.318
0.530,1.387,0.332,-3.662,-5.005,21.729
0.526,1.238,0.408,3.357,-3.113,-5.371
0.549,1.276,0.406,20.264,5.371,-16.663
0.577,1.284,0.322,35.522,20.386,-33.203
0.598,1.246,0.220,32.043,27.466,-57.312
0.589,1.124,0.142,27.527,23.560,-83.496
0.571,1.046,0.102,22.278,10.620,-99.915
0.578,1.010,0.090,20.447,-6.409,-108.948
0.586,0.992,0.113,20.142,-25.269,-116.882
0.583,0.957,0.160,17.456,-41.809,-125.977
0.591,0.890,0.200,14.038,-52.551,-136.230
0.593,0.831,0.218,9.521,-55.847,-145.813
0.591,0.803,0.209,6.287,-55.725,-154.297
0.581,0.773,0.187,5.188,-57.373,-162.476
0.579,0.721,0.181,0.854,-58.594,-169.678
0.596,0.674,0.195,-4.456,-57.312,-175.476
0.637,0.606,0.184,-4.639,-53.833,-183.838
0.668,0.519,0.169,-3.357,-52.612,-197.327
0.677,0.425,0.161,-3.662,-54.565,-211.304
0.671,0.324,0.164,-1.953,-57.922,-222.473
0.680,0.273,0.156,-0.854,-62.561,-228.088
0.828,0.168,0.156,-2.808,-70.007,-229.126
0.859,-0.018,0.228,-0.488,-76.904,-237.915
0.868,-0.186,0.316,2.319,-77.942,-240.112
0.879,-0.286,0.379,9.460,-69.641,-226.501
0.890,-0.345,0.405,18.433,-54.504,-199.707
0.914,-0.348,0.417,19.775,-38.574,-167.480
0.927,-0.309,0.416,19.165,-26.062,-139.526
0.916,-0.255,0.393,22.766,-15.808,-119.141
0.930,-0.210,0.362,25.330,-8.362,-107.117
0.928,-0.193,0.345,23.071,-7.202,-103.455
0.925,-0.217,0.342,19.470,-10.193,-104.736

0.942,-0.451,0.369,8.484,-26.855,-84.045
0.948,-0.455,0.375,6.287,-23.560,-69.458
0.933,-0.443,0.401,0.549,-17.883,-53.406
0.932,-0.428,0.417,-1.099,-12.878,-39.551
0.933,-0.403,0.416,-0.366,-8.057,-27.344
0.930,-0.363,0.405,-1.465,-3.052,-16.968
0.933,-0.337,0.380,-1.526,0.610,-10.071
0.922,-0.317,0.359,-1.282,2.075,-6.348
0.924,-0.301,0.352,-1.587,1.099,-4.211
0.922,-0.293,0.362,-1.343,-2.136,-2.136
0.916,-0.268,0.394,-0.549,-4.639,0.427
0.914,-0.240,0.414,2.197,-4.211,4.456
0.916,-0.208,0.418,5.920,-1.282,7.874
0.913,-0.182,0.413,7.263,2.808,9.766
0.910,-0.153,0.394,7.446,6.226,9.705
0.914,-0.156,0.366,8.728,7.263,6.714
0.907,-0.167,0.359,7.019,5.127,4.211
0.904,-0.167,0.360,3.662,2.502,3.540
0.920,-0.178,0.361,2.930,0.000,3.662
0.921,-0.176,0.381,0.366,-1.953,4.639
0.909,-0.172,0.404,-1.465,-4.089,5.920
0.915,-0.160,0.413,-0.732,-4.150,6.897
0.909,-0.134,0.417,-0.427,-3.113,7.812
0.907,-0.119,0.415,1.221,-2.563,7.080
0.908,-0.115,0.410,2.808,-1.770,4.639
0.907,-0.125,0.404,2.869,-0.488,1.953
0.910,-0.135,0.401,1.831,1.221,0.305
0.910,-0.147,0.397,1.831,2.808,-0.488
0.908,-0.161,0.389,2.441,3.784,-0.854
0.908,-0.169,0.383,1.709,3.967,-0.977
0.911,-0.177,0.382,0.610,3.418,-1.038
0.924,-0.198,0.372,0.183,2.075,-1.038
0.911,-0.197,0.379,-1.404,1.221,-0.305
0.913,-0.193,0.381,-1.465,0.610,1.587
0.909,-0.184,0.384,0.305,-0.122,3.662
0.907,-0.170,0.389,0.061,-0.793,4.822
0.900,-0.155,0.394,-0.244,-1.038,4.944
0.896,-0.134,0.408,0.549,-1.404,4.700
0.893,-0.119,0.419,2.625,-2.136,3.723
0.902,-0.117,0.421,4.211,-1.953,1.099
0.906,-0.134,0.412,3.479,-0.671,-1.831
0.908,-0.161,0.404,1.770,0.977,-4.883
0.912,-0.186,0.398,-0.061,2.014,-6.592
0.916,-0.204,0.394,0.183,1.099,-6.287
0.926,-0.216,0.391,1.648,-0.183,-4.517
0.928,-0.223,0.393,0.916,-0.793,-1.709
0.917,-0.214,0.399,-0.854,0.061,1.221
0.911,-0.197,0.400,-0.977,1.648,4.456
0.905,-0.173,0.403,0.122,2.502,6.958
0.903,-0.147,0.404,0.244,2.563,8.118

1.004,-0.535,0.500,-23.926,16.235,29.724
1.031,-0.631,0.577,-36.133,24.841,43.701
1.074,-0.808,0.628,-40.894,36.865,46.997
1.063,-1.071,0.680,-59.937,50.537,57.983
1.067,-1.261,0.716,-95.703,69.519,80.933
0.984,-1.459,0.698,-113.037,94.910,116.760
0.831,-1.582,0.618,-122.925,127.869,171.448
0.655,-1.486,0.521,-130.798,168.396,246.704
0.441,-1.131,0.407,-105.957,203.003,335.571
0.291,-0.692,0.226,-36.316,226.379,414.001
0.206,-0.094,0.059,5.859,236.023,469.055
0.104,0.487,-0.047,28.076,225.586,494.751
0.090,0.848,-0.144,45.837,199.219,508.240
0.196,1.332,-0.128,37.842,163.818,504.150
0.180,1.771,-0.080,57.922,132.629,424.744
0.221,1.982,-0.064,80.078,104.187,339.600
0.358,2.119,-0.054,51.025,81.726,255.615
0.498,2.019,-0.029,18.921,61.157,154.846
0.505,1.609,0.036,2.747,40.527,51.514
0.549,1.202,0.112,-8.545,24.292,-12.024
0.594,1.028,0.168,-7.446,16.785,-32.471
0.641,0.986,0.139,11.963,18.555,-36.865
0.661,1.008,0.070,20.325,21.179,-42.542
0.662,0.990,-0.008,20.081,18.066,-55.542
0.648,0.956,-0.049,17.944,7.019,-70.496
0.639,0.941,-0.057,18.311,-8.606,-81.116
0.631,0.962,-0.032,20.630,-27.039,-89.233
0.623,0.970,0.006,22.644,-42.786,-100.403
0.631,0.909,0.039,22.644,-53.528,-116.577
0.630,0.812,0.071,17.212,-60.974,-132.996
0.640,0.722,0.080,12.634,-64.697,-146.423
0.667,0.650,0.062,12.756,-65.918,-157.104
0.674,0.583,0.040,16.235,-69.519,-167.114
0.701,0.490,0.055,17.212,-77.393,-176.514
0.714,0.429,0.093,11.963,-85.327,-181.641
0.732,0.370,0.112,13.000,-91.125,-186.279
0.760,0.300,0.137,16.174,-95.215,-190.247
0.800,0.267,0.174,13.245,-99.854,-189.575
0.856,0.213,0.234,10.742,-102.356,-186.829
0.863,0.119,0.304,13.123,-98.877,-191.040
0.861,0.038,0.353,10.437,-90.820,-190.857
0.861,-0.005,0.381,2.563,-79.285,-183.777
0.900,-0.057,0.392,-0.732,-67.932,-175.354
0.933,-0.131,0.402,-1.160,-60.303,-167.542
0.899,-0.183,0.425,-1.648,-54.871,-160.217
0.971,-0.239,0.408,-0.061,-47.668,-148.682
0.990,-0.276,0.427,1.465,-40.222,-134.521
0.984,-0.288,0.433,6.775,-30.884,-121.216
0.990,-0.299,0.407,13.184,-18.372,-105.225
0.992,-0.304,0.370,15.869,-8.484,-88.440

1.022,-0.457,0.456,-21.179,26.733,35.095
1.039,-0.579,0.523,-31.738,35.950,50.659
1.133,-0.703,0.593,-37.537,46.875,56.274
1.141,-1.016,0.662,-42.969,62.012,63.110
1.091,-1.269,0.713,-63.599,86.060,88.501
0.977,-1.553,0.692,-71.045,124.878,132.751
0.764,-1.624,0.617,-79.041,173.462,211.792
0.482,-1.475,0.450,-70.251,224.976,300.293
0.256,-1.035,0.208,-38.635,266.418,391.113
0.084,-0.369,-0.009,6.592,280.701,475.891
0.011,0.264,-0.172,66.162,267.456,523.865
0.038,0.748,-0.216,98.999,233.398,541.321
0.059,0.983,-0.251,102.173,183.838,548.340
0.119,1.623,-0.154,79.956,134.644,506.531
0.193,1.810,-0.085,89.172,101.746,420.776
0.262,1.920,-0.037,84.473,78.430,332.153
0.379,1.986,0.014,49.866,61.890,242.065
0.434,1.817,0.069,31.128,48.828,145.386
0.480,1.534,0.141,25.574,34.058,67.017
0.534,1.286,0.217,20.874,23.682,22.400
0.485,1.245,0.282,25.085,21.240,3.662
0.518,1.240,0.206,42.358,31.006,-9.399
0.512,1.251,0.088,47.974,39.429,-26.550
0.508,1.226,-0.004,38.452,34.363,-45.898
0.500,1.164,-0.040,33.203,14.893,-63.171
0.487,1.112,-0.032,25.330,-8.240,-75.806
0.489,1.067,-0.005,18.799,-28.992,-86.853
0.483,1.025,0.026,13.672,-44.983,-97.473
0.499,0.990,0.044,9.644,-57.129,-108.215
0.506,0.942,0.046,6.287,-66.162,-120.483
0.523,0.882,0.034,1.404,-74.524,-132.935
0.547,0.816,0.025,-3.784,-84.167,-144.531
0.557,0.757,0.022,-9.827,-94.299,-154.907
0.603,0.710,0.033,-12.390,-102.600,-164.612
0.604,0.662,0.043,-8.789,-113.586,-173.767
0.605,0.617,0.047,-6.714,-125.854,-182.251
0.656,0.564,0.105,-11.108,-141.052,-190.002
0.631,0.484,0.218,-14.038,-154.541,-192.139
0.662,0.417,0.291,-11.780,-156.494,-190.796
0.745,0.361,0.336,-4.517,-148.193,-189.270
0.828,0.303,0.398,-3.540,-134.216,-187.012
0.840,0.202,0.469,2.808,-116.577,-192.139
0.834,0.102,0.490,14.587,-95.215,-192.383
0.888,0.051,0.466,15.381,-69.580,-180.847
0.939,0.008,0.426,10.864,-47.791,-164.978
0.934,-0.019,0.402,7.385,-33.203,-148.987
0.940,-0.025,0.395,6.348,-24.170,-132.751
0.937,-0.020,0.398,7.812,-20.081,-117.310
0.943,-0.014,0.403,8.118,-18.188,-104.980
0.946,-0.014,0.405,5.920,-16.296,-97.229

1.000,-0.395,0.530,-34.241,32.776,56.763
1.036,-0.490,0.547,-33.020,46.631,74.341
1.060,-0.576,0.560,-33.020,65.247,91.003
1.066,-0.715,0.579,-39.246,83.801,114.258
1.017,-0.875,0.594,-42.297,102.417,144.714
0.959,-0.993,0.590,-41.565,127.258,183.289
0.813,-1.034,0.572,-42.847,159.180,231.445
0.623,-0.988,0.465,-43.152,196.228,291.138
0.445,-0.723,0.291,-39.429,228.943,362.305
0.349,-0.321,0.067,-17.944,251.038,419.922
0.273,0.054,-0.082,24.719,259.766,447.083
0.139,0.518,-0.232,58.167,243.652,462.646
0.059,0.966,-0.287,62.195,206.726,480.713
0.108,1.407,-0.252,70.984,160.889,478.333
0.189,1.704,-0.201,97.534,122.314,407.837
0.245,1.772,-0.135,101.135,90.759,321.411
0.300,1.742,-0.048,69.702,65.430,234.863
0.325,1.578,0.043,51.758,43.518,160.217
0.362,1.410,0.126,40.527,27.527,108.643
0.430,1.202,0.182,33.997,18.555,76.965
0.336,1.180,0.278,18.738,12.695,66.040
0.351,1.279,0.247,21.545,17.090,58.167
0.309,1.384,0.196,39.063,21.118,43.701
0.295,1.511,0.155,37.170,16.113,25.818
0.269,1.512,0.129,37.109,5.432,0.366
0.263,1.479,0.139,26.611,-6.348,-26.367
0.251,1.403,0.142,23.499,-17.456,-53.467
0.244,1.386,0.125,23.682,-27.893,-76.416
0.247,1.394,0.102,23.926,-38.635,-98.450
0.240,1.397,0.066,25.391,-51.208,-122.681
0.260,1.416,0.030,21.912,-68.787,-149.536
0.285,1.353,0.001,20.508,-92.041,-184.875
0.300,1.219,0.006,18.188,-120.972,-225.525
0.290,1.029,0.049,17.761,-150.513,-266.174
0.278,0.836,0.107,15.747,-172.668,-301.392
0.330,0.601,0.217,10.803,-187.683,-323.181
0.404,0.422,0.338,2.502,-193.420,-322.693
0.559,0.246,0.401,-2.319,-188.904,-308.899
0.665,0.109,0.535,-11.292,-166.382,-288.147
0.692,0.045,0.629,-10.986,-131.531,-258.789
0.762,0.049,0.616,-3.479,-91.736,-220.093
0.834,0.102,0.554,-7.141,-54.993,-185.608
0.854,0.118,0.488,-9.949,-28.809,-167.725
0.884,0.093,0.428,-10.376,-13.184,-157.837
0.879,0.063,0.392,-10.376,-5.676,-147.827
0.896,0.047,0.369,-8.911,-3.540,-136.169
0.918,0.043,0.362,-7.751,-3.906,-125.244
0.915,0.050,0.370,-7.202,-4.822,-115.417
0.930,0.049,0.374,-4.456,-4.028,-108.093
0.933,0.033,0.375,-2.258,-2.014,-102.783

1.114,-0.541,0.557,-42.480,41.382,59.265
1.117,-0.678,0.615,-56.702,57.678,72.937
1.054,-0.901,0.646,-62.622,83.374,95.886
0.970,-0.995,0.654,-75.989,117.615,136.475
0.835,-0.997,0.560,-68.542,157.349,190.796
0.742,-0.898,0.323,-56.396,197.510,258.423
0.655,-0.627,0.073,-54.138,225.342,322.266
0.496,-0.252,-0.116,-39.185,232.849,363.831
0.459,-0.012,-0.285,5.127,225.891,378.540
0.353,0.228,-0.411,46.570,201.660,376.099
0.319,0.552,-0.490,54.932,159.485,378.723
0.327,0.768,-0.513,61.707,109.802,372.620
0.325,0.921,-0.447,66.650,56.274,351.257
0.329,1.114,-0.300,59.387,10.437,317.261
0.334,1.313,-0.133,63.660,-25.146,268.372
0.337,1.430,0.030,67.688,-51.636,219.910
0.384,1.513,0.187,57.190,-67.993,174.927
0.429,1.529,0.349,47.180,-78.125,130.859
0.451,1.492,0.490,39.246,-79.529,90.515
0.455,1.437,0.571,33.508,-67.139,55.420
0.439,1.377,0.583,30.640,-45.959,30.457
0.432,1.459,0.516,30.396,-28.015,13.550
0.433,1.441,0.442,38.330,-18.555,-10.071
0.418,1.447,0.430,29.358,-21.484,-36.194
0.437,1.354,0.418,30.884,-24.902,-66.467
0.427,1.257,0.416,33.997,-28.320,-91.919
0.447,1.185,0.409,30.579,-30.579,-109.741
0.447,1.115,0.387,31.006,-31.555,-123.779
0.452,1.073,0.342,29.968,-30.640,-135.132
0.490,1.018,0.271,28.442,-31.921,-147.339
0.490,0.948,0.204,23.315,-39.917,-160.889
0.508,0.863,0.160,15.503,-53.284,-175.110
0.533,0.748,0.136,10.986,-68.787,-188.904
0.573,0.621,0.137,7.080,-81.238,-198.547
0.623,0.470,0.172,3.296,-88.989,-202.026
0.673,0.291,0.259,-0.793,-90.759,-195.007
0.726,0.206,0.359,-7.690,-81.177,-174.194
0.746,0.193,0.405,-2.136,-63.110,-150.208
0.801,0.237,0.399,4.395,-41.870,-127.563
0.833,0.282,0.374,2.686,-22.461,-112.549
0.852,0.285,0.339,-0.793,-6.958,-105.469
0.853,0.257,0.302,-4.333,2.686,-101.807
0.859,0.230,0.271,-6.226,5.920,-98.267
0.869,0.210,0.258,-4.211,3.784,-94.727
0.867,0.207,0.264,-1.831,-0.610,-90.759
0.869,0.218,0.278,1.587,-5.798,-87.769
0.878,0.215,0.288,6.104,-11.047,-87.952
0.894,0.195,0.304,8.057,-15.686,-90.332
0.907,0.170,0.326,7.751,-19.165,-91.187
0.919,0.139,0.337,9.094,-20.935,-89.722

1.025,-0.419,0.496,-28.625,12.146,46.997
1.020,-0.578,0.570,-39.917,20.081,62.500
1.012,-0.739,0.607,-47.852,32.349,83.862
0.997,-0.890,0.578,-55.664,52.307,117.981
0.930,-0.935,0.489,-67.261,81.116,169.189
0.806,-0.881,0.374,-69.031,112.244,230.530
0.667,-0.698,0.272,-64.026,139.221,293.701
0.527,-0.463,0.195,-48.828,157.654,347.839
0.397,-0.098,0.148,-37.537,168.213,386.597
0.346,0.294,0.104,-17.456,174.011,408.386
0.343,0.598,0.079,6.836,176.392,416.504
0.335,0.779,0.127,20.264,174.683,411.865
0.249,0.952,0.132,35.645,171.875,384.277
0.283,1.147,0.071,33.264,167.847,363.831
0.326,1.325,-0.010,28.687,161.133,325.256
0.350,1.370,-0.083,38.391,146.912,268.433
0.361,1.349,-0.116,41.992,121.948,217.224
0.346,1.322,-0.090,41.199,90.881,175.293
0.354,1.310,-0.043,49.561,61.279,141.846
0.336,1.240,0.039,55.969,35.645,117.310
0.293,1.354,0.114,52.551,16.052,101.196
0.292,1.374,0.128,65.552,6.165,79.956
0.263,1.452,0.166,63.293,-5.615,59.998
0.240,1.490,0.222,62.927,-18.127,37.842
0.225,1.500,0.293,66.528,-26.855,14.404
0.242,1.479,0.335,61.462,-27.039,-7.996
0.259,1.403,0.330,50.171,-20.630,-31.921
0.295,1.295,0.299,32.471,-13.916,-55.664
0.339,1.191,0.273,14.587,-12.390,-73.730
0.362,1.106,0.252,2.197,-15.015,-84.045
0.391,1.052,0.231,-4.822,-18.311,-90.210
0.420,1.023,0.210,-9.827,-23.376,-95.581
0.429,1.009,0.189,-10.193,-30.273,-102.844
0.435,1.009,0.160,-5.432,-38.330,-112.366
0.452,1.005,0.131,0.488,-50.049,-124.512
0.460,0.985,0.114,7.629,-66.650,-140.259
0.446,0.953,0.119,15.808,-85.876,-158.813
0.443,0.881,0.135,25.879,-103.455,-179.626
0.453,0.798,0.169,29.907,-117.554,-197.937
0.508,0.712,0.198,30.151,-126.160,-209.229
0.609,0.580,0.230,30.151,-123.962,-216.431
0.693,0.404,0.316,18.372,-112.427,-219.055
0.694,0.252,0.421,3.174,-96.741,-208.862
0.720,0.194,0.463,-3.662,-77.637,-182.861
0.771,0.225,0.471,-9.338,-56.702,-150.696
0.807,0.270,0.454,-11.597,-39.673,-127.747
0.810,0.301,0.432,-12.634,-27.954,-116.638
0.798,0.319,0.408,-12.207,-20.447,-111.450
0.804,0.326,0.391,-6.592,-15.808,-109.375
0.814,0.339,0.383,-0.732,-15.259,-108.521

1.005,-0.414,0.454,-27.283,7.568,41.077
1.043,-0.551,0.477,-37.537,15.198,57.190
1.025,-0.679,0.515,-48.096,25.208,76.294
1.020,-0.775,0.555,-65.430,36.621,101.379
1.027,-0.855,0.577,-74.707,52.551,136.902
0.968,-0.924,0.551,-73.364,75.073,174.988
0.873,-0.929,0.470,-76.172,102.356,216.797
0.777,-0.849,0.345,-89.355,131.042,259.216
0.603,-0.730,0.227,-107.056,160.278,299.561
0.546,-0.558,0.116,-115.906,184.998,341.370
0.372,-0.334,0.106,-80.872,200.867,374.695
0.145,0.022,0.094,-8.545,204.956,412.231
0.117,0.486,0.032,47.180,201.538,455.933
-0.018,0.867,-0.036,87.463,185.974,478.760
0.008,1.074,-0.162,118.835,156.311,484.619
0.191,1.528,-0.180,117.432,117.920,453.857
0.250,1.771,-0.149,125.732,69.458,389.221
0.315,1.958,-0.035,111.328,21.057,309.814
0.366,2.006,0.104,76.172,-14.526,210.510
0.376,1.661,0.242,47.363,-33.813,105.835
0.332,1.218,0.382,19.165,-41.260,36.316
0.315,1.076,0.491,1.282,-38.147,21.423
0.330,1.107,0.516,26.062,-24.658,28.198
0.340,1.292,0.504,47.668,-9.583,34.607
0.324,1.435,0.466,50.476,1.892,24.536
0.303,1.472,0.418,43.152,9.460,-0.610
0.295,1.438,0.367,33.264,12.695,-28.931
0.297,1.379,0.318,28.320,12.268,-54.871
0.311,1.303,0.266,27.588,10.010,-77.148
0.324,1.205,0.221,27.405,6.470,-96.375
0.347,1.109,0.182,24.780,1.160,-110.657
0.347,1.036,0.156,22.339,-6.348,-120.972
0.349,1.014,0.111,21.667,-17.151,-129.883
0.426,0.947,0.083,22.705,-30.457,-141.724
0.453,0.794,0.077,28.137,-48.096,-155.090
0.515,0.744,0.111,23.560,-65.857,-161.926
0.580,0.647,0.166,22.949,-77.698,-170.715
0.604,0.522,0.247,18.982,-83.008,-178.894
0.642,0.416,0.312,7.080,-81.726,-177.490
0.695,0.352,0.362,0.427,-74.097,-165.833
0.732,0.321,0.393,-0.244,-62.988,-148.437
0.751,0.333,0.403,1.038,-49.988,-130.615
0.771,0.393,0.402,2.563,-34.607,-116.638
0.769,0.473,0.388,3.906,-21.912,-106.934
0.772,0.534,0.359,7.080,-14.160,-105.774
0.789,0.555,0.333,7.874,-9.827,-111.328
0.799,0.486,0.321,4.883,-9.583,-119.507
0.792,0.393,0.359,-0.854,-12.634,-122.375
0.837,0.362,0.384,8.362,-17.883,-117.493
0.822,0.362,0.386,23.132,-21.973,-119.202

1.071,-0.517,0.419,4.578,17.944,49.927
1.077,-0.615,0.453,6.897,27.466,55.420
1.036,-0.810,0.440,15.015,40.833,70.313
0.969,-0.940,0.413,15.259,57.861,108.032
0.910,-0.985,0.369,16.785,73.669,161.926
0.870,-1.009,0.309,24.048,82.458,219.727
0.797,-0.958,0.282,19.531,88.867,272.766
0.674,-0.841,0.240,16.174,95.886,320.129
0.533,-0.614,0.160,19.958,106.079,362.305
0.425,-0.255,0.074,25.696,117.676,400.330
0.318,0.117,-0.024,39.795,121.643,426.697
0.264,0.451,-0.148,54.810,114.624,432.678
0.269,0.702,-0.210,60.608,91.797,423.706
0.310,0.872,-0.157,76.904,55.664,397.888
0.298,0.999,-0.063,105.469,18.799,354.004
0.320,1.133,0.032,104.553,-10.986,309.692
0.352,1.226,0.095,87.219,-30.334,261.353
0.332,1.267,0.165,74.524,-47.607,214.417
0.326,1.295,0.272,58.777,-67.139,178.772
0.333,1.330,0.423,46.997,-85.388,151.917
0.301,1.376,0.584,36.682,-96.252,128.845
0.279,1.450,0.741,27.649,-97.656,107.117
0.271,1.524,0.859,26.672,-91.248,83.618
0.267,1.595,0.941,30.884,-77.759,55.298
0.266,1.616,0.967,36.011,-57.739,21.545
0.274,1.562,0.931,36.011,-34.729,-14.343
0.283,1.440,0.840,26.367,-12.695,-49.438
0.303,1.272,0.718,13.611,3.784,-78.796
0.326,1.111,0.612,5.005,11.536,-97.656
0.349,1.000,0.542,0.427,10.498,-105.225
0.363,0.947,0.492,-1.160,5.737,-106.384
0.376,0.938,0.443,-3.357,1.343,-107.666
0.377,0.967,0.400,-8.301,-2.441,-111.328
0.395,1.002,0.355,-8.057,-7.935,-120.117
0.406,1.004,0.316,-3.784,-16.663,-135.010
0.433,0.967,0.276,-2.502,-26.367,-154.175
0.458,0.901,0.232,-4.517,-33.447,-174.194
0.531,0.802,0.239,-14.954,-39.673,-190.247
0.558,0.622,0.292,-12.756,-44.739,-208.008
0.590,0.452,0.341,-5.798,-46.753,-217.163
0.637,0.339,0.378,-9.888,-45.105,-213.379
0.682,0.273,0.407,-15.930,-40.771,-202.820
0.720,0.231,0.425,-19.592,-34.668,-190.552
0.747,0.206,0.434,-17.761,-26.184,-179.687
0.766,0.201,0.431,-14.282,-17.456,-170.044
0.771,0.215,0.420,-10.315,-10.193,-161.987
0.754,0.245,0.408,-8.301,-6.165,-157.532
0.815,0.276,0.395,-13.000,-9.460,-155.701
0.842,0.193,0.433,-10.681,-16.052,-163.330
0.844,0.090,0.469,-2.747,-17.517,-169.739

0.966,-0.406,0.384,-17.700,5.127,40.588
0.978,-0.421,0.377,-25.452,9.766,53.284
0.968,-0.457,0.370,-31.006,13.855,66.650
0.988,-0.536,0.361,-34.363,15.381,78.064
1.025,-0.655,0.343,-45.227,15.442,89.050
1.044,-0.755,0.336,-62.256,17.090,100.098
1.019,-0.902,0.310,-74.524,20.996,112.976
0.953,-1.001,0.279,-89.233,27.954,143.066
0.856,-1.010,0.244,-102.417,38.513,192.200
0.791,-0.951,0.196,-105.957,46.997,251.343
0.663,-0.804,0.131,-101.868,52.063,305.420
0.582,-0.618,0.025,-92.346,54.199,348.511
0.458,-0.380,-0.026,-87.891,52.551,383.789
0.334,-0.128,-0.075,-78.064,48.035,407.532
0.254,0.172,-0.127,-62.683,37.842,418.945
0.204,0.479,-0.171,-41.626,18.127,415.894
0.187,0.698,-0.157,-18.677,-11.841,403.442
0.195,0.893,-0.049,-8.911,-50.842,385.498
0.215,1.124,0.144,-3.174,-86.853,356.079
0.249,1.279,0.359,14.465,-106.140,306.335
0.275,1.361,0.543,26.428,-108.032,253.601
0.278,1.403,0.692,19.775,-96.802,211.365
0.296,1.462,0.769,11.963,-76.599,179.565
0.294,1.506,0.801,13.000,-52.917,150.208
0.292,1.537,0.794,14.099,-30.273,120.239
0.273,1.530,0.763,17.578,-11.230,87.158
0.247,1.515,0.737,23.743,0.549,55.908
0.240,1.535,0.724,32.715,7.812,30.151
0.245,1.554,0.706,44.495,13.428,5.737
0.256,1.521,0.677,49.988,19.226,-21.240
0.262,1.435,0.636,46.204,24.719,-51.147
0.268,1.313,0.578,40.649,29.419,-78.918
0.287,1.212,0.507,35.156,33.020,-99.792
0.316,1.135,0.425,33.142,33.447,-114.380
0.346,1.085,0.356,32.227,30.945,-125.671
0.370,1.045,0.320,28.015,24.231,-135.254
0.396,0.993,0.298,26.062,16.296,-146.729
0.427,0.921,0.280,25.452,8.850,-159.119
0.441,0.847,0.271,23.376,2.380,-171.570
0.481,0.772,0.269,23.254,-2.991,-183.044
0.510,0.679,0.277,26.245,-9.583,-193.420
0.547,0.567,0.297,26.611,-16.296,-202.026
0.588,0.454,0.328,22.156,-20.691,-206.787
0.637,0.333,0.354,16.541,-22.522,-206.970
0.689,0.228,0.389,11.292,-22.095,-202.209
0.722,0.151,0.437,8.972,-21.362,-191.467
0.760,0.092,0.469,13.733,-18.677,-176.880
0.794,0.052,0.474,20.081,-10.620,-161.072
0.831,0.032,0.450,21.484,0.732,-144.592
0.841,0.031,0.419,20.264,10.864,-129.211

1.005,-0.360,0.459,-16.052,20.813,47.485
1.032,-0.491,0.490,-22.949,26.123,59.814
1.093,-0.662,0.504,-22.949,34.302,70.129
1.125,-0.872,0.522,-17.700,48.645,79.529
1.072,-1.076,0.524,-18.494,69.458,104.980
0.969,-1.222,0.501,-14.648,99.365,154.053
0.831,-1.269,0.403,-8.362,132.629,229.980
0.601,-1.135,0.321,-8.667,161.072,316.833
0.401,-0.817,0.274,-4.761,174.438,397.705
0.198,-0.322,0.270,13.428,179.626,460.205
0.051,0.268,0.268,34.485,179.993,504.150
0.014,0.752,0.236,44.800,178.162,532.288
0.123,1.088,0.229,43.274,170.410,543.152
0.223,1.555,0.287,56.946,160.095,477.661
0.283,1.648,0.355,80.444,147.827,381.104
0.349,1.650,0.400,62.866,142.639,296.021
0.363,1.584,0.351,46.997,147.461,222.107
0.378,1.556,0.212,36.865,151.978,164.612
0.466,1.483,0.059,23.560,145.386,119.019
0.462,1.324,-0.026,16.785,125.061,75.867
0.506,1.208,-0.063,14.832,96.741,44.434
0.489,1.131,-0.021,16.357,64.514,27.649
0.487,1.170,0.054,20.630,34.912,19.043
0.466,1.243,0.096,27.710,15.625,7.812
0.441,1.309,0.104,26.367,3.784,-9.827
0.417,1.311,0.082,23.071,-6.104,-33.875
0.382,1.283,0.058,15.564,-16.907,-58.777
0.379,1.268,0.030,9.644,-27.222,-82.764
0.391,1.233,0.000,9.705,-39.124,-107.422
0.405,1.156,-0.028,9.094,-54.810,-132.996
0.446,1.045,-0.045,6.042,-74.341,-160.583
0.472,0.883,-0.032,3.845,-96.375,-187.500
0.498,0.710,0.005,3.479,-115.906,-210.693
0.530,0.543,0.063,4.456,-130.310,-226.257
0.559,0.415,0.150,1.404,-136.292,-229.309
0.625,0.375,0.221,-4.150,-136.292,-218.506
0.682,0.369,0.279,-9.033,-134.338,-204.041
0.696,0.378,0.337,-13.916,-131.226,-192.627
0.701,0.407,0.377,-14.771,-125.061,-185.913
0.720,0.422,0.401,-9.460,-117.859,-184.265
0.759,0.402,0.406,-4.639,-111.023,-186.707
0.805,0.355,0.419,-5.798,-100.464,-190.430
0.818,0.317,0.461,-12.390,-88.379,-191.101
0.834,0.238,0.488,-7.629,-76.599,-189.575
0.915,0.126,0.466,0.977,-61.157,-184.875
0.922,0.042,0.467,-2.014,-41.504,-173.462
0.907,-0.003,0.460,-5.554,-23.254,-156.799
0.914,-0.048,0.421,3.052,-9.033,-140.381
0.889,-0.035,0.389,7.141,-0.549,-124.817
0.905,-0.007,0.356,6.165,2.625,-113.953

1.000,-0.516,0.372,-84.961,4.150,68.665
1.027,-0.667,0.375,-92.407,7.324,79.163
1.012,-0.793,0.372,-96.985,10.925,89.844
0.978,-0.921,0.351,-111.084,19.470,113.770
0.919,-0.976,0.314,-121.704,30.945,157.104
0.818,-0.999,0.286,-114.990,38.696,209.656
0.721,-0.915,0.279,-106.079,42.847,264.282
0.607,-0.723,0.269,-93.628,47.607,316.589
0.473,-0.379,0.249,-71.472,56.641,359.436
0.412,-0.005,0.211,-34.058,65.063,387.817
0.319,0.401,0.219,1.282,65.247,403.748
0.200,0.796,0.249,25.208,57.190,413.025
0.145,1.181,0.273,39.490,45.593,417.053
0.286,1.735,0.277,50.537,35.950,377.014
0.362,1.979,0.319,56.946,20.142,295.898
0.362,1.993,0.372,35.706,3.967,204.712
0.413,1.802,0.463,14.343,-4.761,114.075
0.445,1.485,0.508,5.615,-5.493,45.898
0.465,1.246,0.531,1.404,-2.197,5.737
0.477,1.134,0.500,6.226,1.831,-11.719
0.486,1.114,0.435,14.221,3.906,-21.606
0.501,1.119,0.385,14.526,0.610,-32.654
0.494,1.112,0.364,8.789,-8.118,-46.509
0.489,1.099,0.375,1.221,-20.203,-61.951
0.498,1.076,0.403,-3.601,-29.968,-76.050
0.500,1.046,0.428,-2.747,-35.828,-88.989
0.510,1.019,0.434,-0.977,-35.767,-101.746
0.524,0.988,0.417,0.122,-31.799,-114.624
0.562,0.928,0.383,3.174,-27.283,-129.150
0.612,0.816,0.354,3.601,-23.560,-144.348
0.634,0.677,0.353,0.549,-21.667,-155.945
0.650,0.515,0.363,-0.732,-20.325,-161.743
0.694,0.388,0.383,-0.366,-17.944,-160.828
0.730,0.311,0.399,1.099,-15.442,-153.992
0.768,0.272,0.392,4.333,-10.254,-143.860
0.778,0.264,0.374,5.432,-4.089,-133.911
0.786,0.265,0.353,6.531,-0.244,-127.319
0.793,0.269,0.345,7.629,0.061,-125.305
0.801,0.267,0.348,10.559,-3.052,-126.404
0.805,0.239,0.347,16.357,-7.202,-130.432
0.863,0.185,0.325,18.921,-9.888,-134.766
0.898,0.106,0.321,14.282,-9.888,-135.376
0.882,0.057,0.360,5.066,-9.277,-129.456
0.887,0.024,0.387,7.690,-9.338,-120.667
0.893,-0.001,0.400,15.381,-8.118,-111.206
0.887,-0.001,0.409,15.991,-5.493,-102.905
0.897,-0.005,0.416,15.381,-4.272,-97.595
0.905,-0.015,0.426,16.785,-5.676,-94.116
0.917,-0.031,0.432,19.226,-7.141,-90.393
0.929,-0.052,0.433,20.691,-5.859,-85.266

1.002,-0.493,0.402,-19.287,2.197,34.851
1.026,-0.612,0.398,-21.179,5.188,41.626
1.075,-0.825,0.405,-25.085,7.568,49.011
1.058,-1.060,0.457,-28.931,8.789,65.430
0.935,-1.256,0.490,-26.489,14.526,101.196
0.805,-1.300,0.471,-21.667,27.649,168.396
0.687,-1.134,0.400,-13.855,40.894,249.878
0.596,-0.857,0.305,-5.371,47.546,317.383
0.501,-0.483,0.211,-9.338,50.232,363.159
0.438,-0.099,0.094,-10.437,53.223,388.306
0.316,0.267,-0.014,-5.615,50.110,398.499
0.231,0.623,-0.095,2.075,36.621,398.010
0.238,0.888,-0.157,13.916,10.986,393.616
0.345,1.256,-0.120,26.367,-28.809,363.708
0.406,1.427,0.030,44.617,-74.585,281.250
0.436,1.401,0.272,38.940,-107.849,201.172
0.475,1.257,0.499,23.193,-121.033,135.498
0.479,1.097,0.726,18.921,-121.460,91.797
0.509,1.058,0.891,16.968,-108.948,74.463
0.512,1.115,0.978,19.104,-82.581,69.092
0.515,1.210,0.958,18.555,-46.448,62.500
0.498,1.275,0.874,20.447,-13.306,47.302
0.457,1.305,0.783,20.630,7.812,28.503
0.473,1.309,0.702,20.630,19.409,9.521
0.456,1.260,0.661,19.531,21.851,-10.254
0.444,1.176,0.646,16.479,19.897,-30.701
0.461,1.087,0.632,12.573,18.311,-48.462
0.468,1.030,0.610,8.362,18.616,-61.951
0.474,1.013,0.588,7.629,19.104,-71.106
0.488,1.001,0.540,10.681,23.010,-79.712
0.503,0.972,0.487,12.268,26.978,-91.858
0.517,0.923,0.427,11.780,28.748,-106.079
0.541,0.847,0.375,12.207,27.588,-120.667
0.565,0.765,0.345,14.038,23.621,-134.094
0.577,0.681,0.327,15.808,16.663,-145.874
0.638,0.581,0.320,16.235,9.827,-155.579
0.710,0.453,0.321,13.672,5.798,-161.438
0.685,0.327,0.365,7.935,2.808,-161.987
0.704,0.251,0.407,4.456,2.991,-156.738
0.747,0.193,0.413,10.071,5.493,-149.780
0.759,0.156,0.404,12.390,9.766,-142.151
0.799,0.116,0.384,11.719,14.038,-135.376
0.811,0.085,0.383,9.399,15.320,-128.418
0.822,0.069,0.386,7.812,13.672,-120.972
0.837,0.069,0.394,9.216,12.146,-113.342
0.828,0.085,0.404,11.475,10.742,-107.605
0.846,0.078,0.409,15.076,9.338,-105.164
0.865,0.026,0.413,15.442,8.240,-106.018
0.848,-0.024,0.433,10.986,6.653,-107.056
0.865,-0.068,0.435,10.132,4.761,-105.896

1.013,-0.571,0.466,-13.672,7.507,45.837
1.023,-0.691,0.514,-16.602,11.597,59.692
1.032,-0.871,0.521,-15.015,20.935,80.261
0.976,-0.996,0.549,-17.700,34.302,114.990
0.890,-1.084,0.528,-17.212,49.072,160.767
0.778,-1.064,0.453,-11.169,61.890,213.074
0.684,-0.862,0.339,-10.254,73.669,267.761
0.563,-0.527,0.220,-2.502,80.750,317.749
0.495,-0.181,0.095,10.681,79.407,350.159
0.480,0.104,-0.015,12.390,66.345,359.924
0.450,0.356,-0.059,1.526,43.823,352.173
0.446,0.496,-0.045,-0.488,15.869,334.961
0.467,0.590,0.043,1.770,-15.747,315.002
0.477,0.646,0.172,5.066,-41.016,292.297
0.497,0.703,0.280,10.315,-50.720,268.372
0.487,0.805,0.359,13.062,-49.866,249.634
0.439,0.975,0.428,13.977,-45.776,239.746
0.420,1.219,0.502,15.747,-43.091,236.511
0.424,1.506,0.565,19.592,-40.466,219.116
0.416,1.618,0.622,15.930,-37.354,173.767
0.395,1.636,0.700,-0.488,-32.043,122.986
0.386,1.542,0.726,-2.136,-20.447,75.623
0.367,1.473,0.713,1.831,-7.507,39.734
0.369,1.412,0.664,7.812,2.014,11.841
0.368,1.318,0.608,11.963,8.362,-14.648
0.386,1.203,0.557,11.353,10.742,-38.818
0.403,1.072,0.518,5.920,10.254,-58.044
0.431,0.958,0.485,2.380,8.667,-70.129
0.452,0.901,0.456,1.099,7.874,-74.402
0.467,0.898,0.425,0.732,8.057,-74.280
0.470,0.925,0.391,1.587,8.179,-75.562
0.496,0.956,0.358,2.197,8.057,-81.055
0.511,0.947,0.335,4.578,6.287,-92.224
0.526,0.898,0.320,7.324,3.052,-107.117
0.544,0.829,0.308,10.742,-0.916,-122.925
0.583,0.715,0.294,16.174,-6.348,-138.611
0.597,0.607,0.300,15.503,-11.902,-150.391
0.625,0.512,0.313,13.794,-15.808,-156.433
0.647,0.443,0.331,14.343,-18.982,-157.654
0.673,0.405,0.354,14.343,-22.217,-156.372
0.707,0.377,0.369,15.930,-24.902,-154.175
0.734,0.344,0.386,18.311,-26.001,-152.954
0.763,0.299,0.396,18.555,-26.306,-152.161
0.799,0.236,0.410,15.381,-25.208,-150.391
0.822,0.180,0.442,6.653,-23.376,-145.447
0.836,0.123,0.487,-0.488,-20.630,-137.390
0.836,0.083,0.520,-2.136,-15.930,-127.380
0.847,0.045,0.519,0.671,-7.935,-117.676
0.861,0.031,0.499,1.648,-0.549,-108.704
0.860,0.028,0.484,1.648,3.479,-101.196

0.996,-0.639,0.614,-5.188,-2.441,-55.725
1.078,-0.845,0.718,-3.540,2.258,-56.763
1.130,-1.182,0.828,-0.977,15.198,-58.960
1.070,-1.481,0.906,-4.089,46.082,-46.814
0.960,-1.680,0.858,-4.517,96.985,-3.723
0.875,-1.703,0.681,-0.244,146.606,53.772
0.732,-1.682,0.504,13.550,176.514,113.464
0.559,-1.689,0.329,36.804,184.448,175.049
0.328,-1.600,0.172,42.542,180.481,253.174
0.171,-1.177,0.042,43.823,174.316,351.685
0.123,-0.603,-0.075,84.961,164.856,436.218
0.110,-0.028,-0.158,131.470,145.569,482.910
0.144,0.432,-0.267,151.672,114.624,496.643
0.141,0.814,-0.292,134.827,69.214,498.596
0.147,1.139,-0.158,106.812,10.803,490.906
0.257,1.516,0.056,110.596,-45.349,436.829
0.353,1.608,0.286,120.972,-88.501,382.202
0.390,1.782,0.497,85.510,-103.333,323.853
0.494,1.830,0.602,58.167,-89.478,241.150
0.496,1.661,0.614,27.466,-56.763,139.709
0.424,1.296,0.521,-14.709,-17.395,49.500
0.461,1.014,0.402,-37.109,7.507,5.249
0.471,0.942,0.352,-28.015,10.498,1.221
0.536,0.993,0.342,-5.676,2.869,6.775
0.577,1.052,0.367,2.014,-2.563,1.099
0.601,1.000,0.377,1.526,-4.578,-20.325
0.628,0.892,0.382,-1.465,-4.883,-46.143
0.658,0.806,0.385,-5.249,-5.981,-61.707
0.693,0.777,0.405,-8.484,-9.827,-67.749
0.726,0.757,0.424,-9.766,-13.306,-71.899
0.766,0.703,0.424,-13.489,-11.475,-77.271
0.786,0.622,0.397,-21.973,-5.981,-83.740
0.809,0.549,0.372,-29.175,-2.075,-89.722
0.828,0.473,0.335,-26.245,-0.793,-92.773
0.860,0.419,0.317,-18.250,-0.549,-93.323
0.889,0.381,0.324,-12.451,-1.282,-92.896
0.889,0.372,0.342,-5.310,-1.282,-92.957
0.882,0.376,0.344,3.723,3.235,-92.590
0.889,0.394,0.324,10.925,13.062,-90.576
0.900,0.403,0.300,15.564,25.818,-90.210
0.916,0.392,0.275,23.804,38.208,-93.262
0.886,0.391,0.244,28.076,44.006,-98.633
0.885,0.400,0.228,21.179,46.448,-101.074
0.873,0.365,0.211,20.508,50.110,-108.826
0.874,0.315,0.182,17.212,54.688,-118.347
0.877,0.266,0.157,12.085,58.594,-127.625
0.883,0.197,0.132,13.123,61.584,-138.733
0.908,0.157,0.046,14.832,60.486,-149.353
0.931,0.016,0.019,12.756,47.241,-160.400
0.969,-0.089,0.032,-5.920,25.818,-159.851

0.929,-0.481,0.234,-0.732,-70.129,-15.930
0.947,-0.400,0.304,-25.818,-73.364,15.625
0.934,-0.397,0.330,-36.011,-68.970,41.321
0.967,-0.349,0.336,-29.663,-64.941,65.491
0.990,-0.255,0.375,-30.396,-68.115,83.801
1.000,-0.106,0.437,-31.555,-72.876,92.041
0.989,0.092,0.516,-16.113,-71.838,84.961
0.966,0.241,0.592,37.781,-64.636,60.974
0.919,0.076,0.525,126.770,-52.185,23.987
0.917,-0.049,0.452,123.535,-34.058,4.517
0.913,-0.072,0.417,51.147,-21.790,2.441
0.913,-0.069,0.391,-2.075,-15.320,6.226
0.913,-0.066,0.396,-16.907,-12.817,10.803
0.907,-0.051,0.406,-18.738,-10.620,15.442
0.895,-0.014,0.410,-23.010,-5.981,18.250
0.907,-0.007,0.402,-19.043,-1.709,17.578
0.928,-0.047,0.411,-0.977,-1.526,15.320
0.939,-0.080,0.438,11.108,-2.380,13.855
0.932,-0.110,0.453,2.930,-0.305,13.672
0.929,-0.096,0.452,-11.047,5.493,16.846
0.931,-0.072,0.434,-15.076,12.573,19.897
0.931,-0.055,0.401,-11.169,18.921,21.606
0.913,-0.022,0.356,-7.141,21.667,22.888
0.906,0.001,0.309,-5.493,18.921,22.278
0.909,0.009,0.284,-6.409,12.024,19.165
0.920,0.000,0.289,-10.559,3.479,15.076
0.887,0.014,0.336,-18.555,-6.897,13.977
0.881,0.069,0.400,-23.926,-15.564,15.808
0.873,0.112,0.467,-17.212,-19.409,16.418
0.867,0.139,0.511,-7.385,-18.311,14.282
0.859,0.158,0.526,-5.371,-11.658,9.277
0.862,0.164,0.536,-9.583,-1.892,1.892
0.890,0.141,0.508,-13.489,9.094,-5.066
0.885,0.084,0.463,-14.709,15.808,-12.451
0.902,0.041,0.434,-21.240,18.311,-16.174
0.919,0.013,0.426,-27.405,17.883,-16.113
0.891,0.004,0.432,-25.757,15.747,-13.550
0.891,0.018,0.434,-19.287,15.625,-10.010
0.893,0.037,0.426,-12.451,17.273,-7.019
0.879,0.078,0.415,-8.972,18.616,-6.042
0.909,0.089,0.390,-6.592,19.592,-8.362
0.921,0.075,0.369,-7.996,17.090,-11.841
0.907,0.063,0.366,-15.564,11.719,-14.954
0.911,0.065,0.365,-21.912,8.362,-17.883
0.926,0.034,0.364,-21.118,5.920,-22.827
0.923,-0.011,0.375,-22.095,3.906,-27.222
0.930,-0.036,0.392,-26.062,2.136,-26.794
0.939,-0.052,0.414,-24.292,1.404,-22.949
0.944,-0.062,0.423,-18.982,2.319,-18.188
0.941,-0.049,0.421,-16.174,4.578,-13.672

0.995,-0.389,0.472,-3.784,14.038,-9.338
1.024,-0.466,0.489,-8.728,21.362,2.747
1.038,-0.564,0.527,-14.282,27.222,17.822
1.072,-0.675,0.584,-25.574,33.813,35.217
1.100,-0.759,0.634,-38.513,42.480,47.791
1.093,-0.992,0.662,-52.490,55.359,56.213
1.072,-1.172,0.667,-80.872,71.228,78.613
0.969,-1.287,0.639,-105.774,91.064,116.699
0.837,-1.363,0.513,-107.544,116.943,176.575
0.707,-1.241,0.340,-91.919,147.461,248.596
0.607,-1.040,0.124,-50.415,166.992,310.852
0.480,-0.781,-0.016,-17.029,169.434,355.713
0.413,-0.493,-0.080,1.221,158.020,383.728
0.328,-0.212,-0.106,25.085,140.259,402.283
0.229,0.068,-0.100,45.471,123.413,412.659
0.271,0.411,-0.153,71.716,111.084,408.936
0.077,0.714,-0.176,101.318,94.116,408.691
0.089,1.009,-0.228,110.474,70.068,416.565
0.189,1.486,-0.150,112.366,38.452,400.513
0.207,1.712,-0.016,124.695,1.343,330.139
0.237,1.853,0.167,94.421,-25.635,259.827
0.244,1.841,0.361,44.006,-39.429,196.350
0.264,1.732,0.497,18.127,-38.513,139.771
0.285,1.624,0.564,13.489,-28.381,94.788
0.269,1.615,0.592,13.550,-15.625,62.866
0.272,1.643,0.558,18.738,-0.427,33.752
0.287,1.637,0.460,21.912,16.235,0.488
0.303,1.541,0.334,19.226,26.489,-36.255
0.323,1.404,0.229,14.099,25.391,-70.679
0.374,1.257,0.166,11.414,13.855,-95.581
0.416,1.175,0.157,8.362,-2.869,-111.450
0.457,1.122,0.162,5.432,-19.165,-124.451
0.483,1.093,0.153,5.066,-32.837,-138.550
0.504,1.049,0.128,5.737,-44.983,-154.968
0.517,0.978,0.112,5.432,-59.387,-172.546
0.541,0.836,0.115,2.441,-77.576,-190.430
0.575,0.627,0.151,-6.348,-95.459,-204.285
0.654,0.431,0.226,-22.217,-107.971,-210.083
0.708,0.274,0.356,-35.217,-111.023,-205.017
0.768,0.137,0.462,-35.278,-104.492,-189.026
0.835,0.100,0.542,-33.142,-88.562,-166.077
0.873,0.136,0.574,-28.137,-65.674,-140.198
0.888,0.187,0.540,-16.418,-40.039,-121.033
0.897,0.227,0.465,-7.263,-18.433,-109.680
0.895,0.254,0.396,-4.883,-5.310,-104.126
0.875,0.279,0.353,-3.662,-1.953,-101.013
0.871,0.298,0.329,-1.099,-3.113,-100.037
0.872,0.285,0.315,0.244,-5.676,-100.586
0.886,0.260,0.308,-1.282,-7.507,-100.342
0.896,0.255,0.304,-0.854,-7.568,-97.961

1.036,-0.429,0.496,-6.592,-3.113,-27.100
1.058,-0.551,0.543,-14.954,2.747,-16.235
1.120,-0.714,0.594,-18.616,11.169,-5.005
1.185,-1.011,0.657,-24.841,19.531,2.075
1.171,-1.318,0.737,-43.579,30.945,21.423
1.047,-1.620,0.792,-63.477,51.025,68.054
1.006,-1.690,0.775,-72.327,81.970,139.099
0.771,-1.615,0.656,-60.364,122.375,216.492
0.508,-1.368,0.452,-20.264,161.560,299.927
0.332,-0.851,0.205,41.138,183.228,380.859
0.234,-0.203,-0.013,93.201,185.181,434.814
0.159,0.315,-0.196,129.761,166.199,451.782
0.182,0.681,-0.333,138.367,128.113,445.679
0.229,0.958,-0.350,119.080,73.975,431.519
0.309,1.347,-0.192,102.356,16.663,388.794
0.335,1.486,0.036,108.215,-27.161,308.594
0.367,1.564,0.272,94.238,-49.622,244.019
0.398,1.612,0.447,65.552,-49.744,192.261
0.404,1.601,0.557,48.645,-39.612,146.851
0.417,1.614,0.584,37.354,-23.437,110.413
0.419,1.613,0.550,26.428,-4.944,72.266
0.397,1.587,0.470,19.775,8.423,32.349
0.408,1.501,0.372,20.020,14.160,-8.240
0.412,1.345,0.307,18.799,9.338,-46.082
0.462,1.167,0.275,13.184,-2.808,-77.087
0.507,0.992,0.274,7.080,-18.250,-100.037
0.566,0.864,0.294,1.953,-34.485,-114.746
0.623,0.745,0.330,-1.770,-48.889,-124.146
0.668,0.646,0.383,-7.690,-59.265,-128.479
0.708,0.577,0.432,-12.695,-64.331,-129.761
0.752,0.532,0.457,-16.052,-63.049,-129.822
0.775,0.476,0.462,-17.212,-57.495,-130.493
0.798,0.430,0.457,-18.188,-49.438,-130.493
0.825,0.375,0.439,-14.709,-40.771,-128.906
0.849,0.309,0.414,-9.827,-34.363,-125.793
0.861,0.261,0.401,-8.972,-29.236,-121.155
0.870,0.238,0.390,-7.690,-24.292,-114.807
0.876,0.234,0.375,-3.296,-20.508,-107.910
0.868,0.240,0.365,-1.160,-19.287,-100.769
0.854,0.266,0.376,-4.089,-18.250,-91.675
0.862,0.323,0.379,-6.287,-14.343,-80.750
0.854,0.344,0.356,-0.916,-8.545,-75.989
0.861,0.341,0.327,2.991,-4.456,-77.820
0.873,0.324,0.315,1.282,-4.333,-83.923
0.874,0.270,0.318,-0.427,-7.751,-91.431
0.892,0.233,0.338,-1.831,-12.573,-97.412
0.916,0.185,0.348,-3.052,-15.869,-100.342
0.906,0.098,0.371,-5.981,-16.296,-102.539
0.904,0.001,0.397,-14.282,-15.320,-99.792
0.911,-0.068,0.419,-20.691,-13.550,-90.942

1.039,-0.497,0.512,-18.005,19.165,40.710
1.041,-0.602,0.560,-36.194,32.043,55.969
1.081,-0.714,0.573,-45.532,49.622,74.402
1.073,-0.897,0.578,-42.419,61.707,96.558
1.030,-1.011,0.577,-49.500,72.632,126.892
0.995,-1.107,0.529,-58.289,88.562,163.940
0.857,-1.125,0.430,-59.753,109.863,202.637
0.698,-1.067,0.270,-52.917,132.812,250.671
0.561,-0.879,0.065,-39.001,150.269,310.242
0.438,-0.513,-0.122,-12.146,153.259,362.793
0.359,-0.110,-0.251,31.006,138.611,394.531
0.314,0.189,-0.310,67.688,105.469,403.748
0.274,0.448,-0.289,76.050,63.171,395.142
0.292,0.694,-0.180,67.261,19.714,379.089
0.247,0.945,0.059,57.678,-23.621,370.667
0.328,1.209,0.303,62.012,-46.875,363.647
0.241,1.435,0.503,84.473,-46.570,321.899
0.319,1.617,0.598,101.257,-29.419,273.376
0.317,1.756,0.635,82.764,-7.080,216.248
0.310,1.777,0.606,49.072,13.184,152.344
0.294,1.647,0.539,32.288,26.733,93.323
0.308,1.529,0.493,31.921,31.006,49.255
0.335,1.474,0.470,37.476,31.250,17.761
0.325,1.419,0.459,45.471,31.555,-9.460
0.379,1.308,0.391,48.950,34.485,-38.452
0.413,1.193,0.305,41.382,32.776,-62.805
0.454,1.096,0.254,31.250,20.264,-81.116
0.499,1.021,0.263,26.794,2.441,-94.971
0.507,0.971,0.321,23.193,-12.085,-104.492
0.550,0.950,0.326,21.057,-18.005,-111.389
0.587,0.926,0.297,16.846,-21.362,-120.850
0.599,0.893,0.281,8.179,-31.128,-131.592
0.594,0.844,0.289,0.610,-47.424,-142.273
0.618,0.742,0.306,-3.784,-63.538,-152.344
0.665,0.665,0.352,-12.390,-69.275,-159.729
0.666,0.591,0.405,-20.813,-64.819,-162.537
0.691,0.509,0.427,-23.315,-57.617,-160.950
0.725,0.449,0.430,-22.949,-49.683,-157.654
0.748,0.396,0.435,-23.071,-43.823,-152.771
0.755,0.365,0.433,-21.912,-40.283,-146.912
0.775,0.366,0.418,-20.996,-37.720,-140.686
0.781,0.384,0.397,-20.874,-36.621,-136.353
0.786,0.390,0.390,-21.729,-37.109,-135.498
0.784,0.391,0.385,-23.315,-37.354,-136.047
0.800,0.369,0.377,-22.095,-35.767,-137.939
0.812,0.332,0.385,-20.325,-33.936,-139.954
0.821,0.281,0.386,-16.846,-32.410,-141.724
0.818,0.215,0.395,-12.817,-30.212,-142.395
0.833,0.150,0.407,-11.108,-25.940,-140.869
0.844,0.089,0.408,-9.705,-20.325,-136.292

1.039,-0.467,0.536,-15.747,26.489,40.161
1.083,-0.617,0.582,-25.879,35.889,52.002
1.102,-0.759,0.618,-29.968,49.438,65.491
1.059,-0.964,0.623,-28.442,66.711,85.632
1.032,-1.111,0.585,-38.330,86.670,125.183
0.937,-1.160,0.540,-51.392,105.103,180.481
0.799,-1.090,0.434,-51.453,126.343,240.845
0.676,-0.901,0.264,-42.725,146.118,298.523
0.552,-0.555,0.070,-30.945,158.813,344.971
0.476,-0.191,-0.119,-11.780,156.982,372.559
0.444,0.131,-0.233,4.700,135.010,382.385
0.412,0.374,-0.262,19.104,100.525,373.230
0.357,0.561,-0.189,36.743,61.157,350.159
0.466,0.661,-0.063,55.542,22.949,327.332
0.354,0.829,0.207,65.796,-9.583,307.251
0.369,1.048,0.418,67.017,-24.475,295.715
0.398,1.305,0.560,78.125,-17.761,272.156
0.406,1.455,0.600,84.045,1.465,225.586
0.365,1.462,0.538,70.190,26.550,173.706
0.361,1.535,0.443,45.776,43.945,133.118
0.338,1.550,0.385,33.142,45.349,95.642
0.353,1.513,0.357,27.100,37.659,59.387
0.358,1.449,0.338,23.437,29.846,24.841
0.367,1.399,0.297,25.574,23.743,-4.944
0.386,1.337,0.250,28.687,16.602,-31.189
0.419,1.251,0.224,25.879,5.188,-54.932
0.425,1.163,0.219,20.630,-9.216,-74.341
0.481,1.093,0.231,17.212,-24.536,-90.149
0.501,1.026,0.253,17.944,-39.246,-104.614
0.530,0.970,0.273,17.578,-51.331,-119.446
0.559,0.892,0.275,18.677,-61.401,-133.789
0.573,0.827,0.282,16.968,-71.472,-147.217
0.593,0.769,0.299,14.221,-81.970,-157.288
0.599,0.679,0.332,12.329,-91.492,-164.001
0.612,0.550,0.376,7.935,-96.741,-165.833
0.689,0.436,0.412,0.732,-97.961,-160.889
0.818,0.372,0.445,-2.075,-91.980,-150.208
0.802,0.294,0.508,-4.883,-78.003,-142.456
0.804,0.221,0.539,-11.047,-60.364,-134.644
0.827,0.198,0.534,-11.230,-39.917,-119.995
0.839,0.238,0.495,-7.690,-19.531,-102.844
0.846,0.291,0.435,-3.357,-4.700,-90.332
0.830,0.333,0.390,-2.136,2.014,-84.167
0.834,0.355,0.361,-1.770,3.174,-83.923
0.834,0.347,0.354,-0.793,0.366,-86.365
0.807,0.299,0.361,-0.488,-3.357,-89.172
0.830,0.268,0.379,-3.601,-6.592,-88.745
0.889,0.256,0.385,-3.174,-8.850,-84.412
0.893,0.221,0.404,-0.793,-10.376,-85.083
0.874,0.144,0.418,-1.709,-11.292,-88.318

1.010,-0.392,0.488,-17.578,13.000,17.151
1.023,-0.510,0.576,-22.949,19.531,33.875
1.072,-0.631,0.645,-35.095,32.959,55.542
1.118,-0.749,0.677,-44.189,50.232,74.097
1.092,-0.929,0.716,-45.776,73.059,92.896
1.017,-0.997,0.757,-51.453,101.990,127.441
0.956,-0.981,0.717,-44.373,128.357,179.993
0.872,-0.896,0.619,-21.851,153.564,232.483
0.746,-0.738,0.471,-6.226,181.580,278.381
0.608,-0.512,0.275,-4.272,208.069,316.589
0.519,-0.337,0.033,8.362,220.642,341.980
0.436,-0.192,-0.138,28.320,208.618,357.849
0.307,-0.023,-0.208,36.377,177.856,370.789
0.199,0.259,-0.214,40.283,141.052,383.118
0.120,0.589,-0.208,57.312,108.643,389.221
0.043,0.948,-0.141,71.533,79.407,394.348
0.171,1.379,0.006,75.562,50.659,402.466
0.066,1.693,0.255,97.534,25.024,367.310
0.093,1.902,0.322,114.014,14.160,321.289
0.243,2.081,0.384,59.998,27.344,263.306
0.256,1.971,0.389,8.667,41.931,167.175
0.248,1.613,0.322,-0.183,49.805,81.482
0.300,1.430,0.263,-5.310,50.537,40.833
0.320,1.335,0.206,-5.737,49.316,17.151
0.355,1.263,0.078,-3.174,48.889,-3.906
0.404,1.219,-0.056,-9.216,42.847,-23.987
0.404,1.188,-0.124,-12.756,23.132,-42.480
0.469,1.142,-0.130,-11.047,-5.005,-60.608
0.525,1.044,-0.064,-13.062,-35.156,-78.369
0.584,0.931,0.033,-22.217,-62.012,-93.323
0.638,0.817,0.128,-27.344,-80.688,-106.079
0.685,0.741,0.207,-25.391,-90.759,-115.662
0.711,0.696,0.255,-15.503,-92.590,-123.352
0.748,0.662,0.275,-3.845,-88.806,-129.456
0.781,0.601,0.279,3.723,-84.229,-136.780
0.795,0.534,0.292,5.310,-82.092,-142.700
0.805,0.492,0.314,5.859,-80.078,-144.775
0.810,0.477,0.322,12.329,-75.623,-143.799
0.813,0.480,0.327,19.775,-69.885,-141.968
0.810,0.471,0.332,24.170,-64.514,-141.846
0.803,0.467,0.327,21.667,-58.594,-142.273
0.798,0.462,0.313,17.822,-53.772,-142.761
0.799,0.451,0.299,14.709,-51.025,-142.517
0.786,0.431,0.285,13.245,-50.537,-142.761
0.781,0.396,0.269,13.916,-51.697,-144.531
0.779,0.355,0.267,11.292,-55.176,-145.142
0.773,0.308,0.276,8.362,-59.082,-142.029
0.820,0.294,0.292,7.935,-62.195,-136.536
0.871,0.290,0.314,10.315,-62.134,-127.991
0.871,0.316,0.357,10.315,-57.983,-122.131

1.000,-0.363,0.498,-10.864,7.507,38.574
1.033,-0.447,0.536,-15.930,10.376,55.054
1.062,-0.532,0.575,-22.034,20.325,73.669
1.084,-0.595,0.601,-25.879,34.424,91.309
1.037,-0.704,0.599,-21.362,50.781,108.154
0.966,-0.756,0.558,-21.912,71.106,136.902
0.911,-0.727,0.492,-23.865,89.355,178.589
0.856,-0.623,0.407,-15.747,100.403,219.910
0.759,-0.507,0.324,-0.183,108.643,251.831
0.671,-0.329,0.215,10.498,115.051,278.992
0.557,-0.139,0.107,16.541,114.319,300.964
0.480,0.109,0.033,19.226,105.469,315.063
0.462,0.346,-0.008,29.846,89.050,317.383
0.420,0.541,-0.015,46.326,64.758,308.228
0.504,0.678,-0.020,56.946,36.072,290.466
0.527,0.733,0.074,51.758,4.761,265.991
0.547,0.739,0.242,35.889,-18.982,237.305
0.596,0.701,0.362,27.649,-25.024,212.524
0.607,0.700,0.428,25.330,-16.663,194.397
0.610,0.708,0.425,32.227,-0.366,180.420
0.564,0.845,0.395,39.001,10.071,172.424
0.529,1.053,0.394,36.926,15.015,165.710
0.522,1.194,0.387,36.987,17.151,153.503
0.490,1.333,0.398,26.978,18.738,129.395
0.500,1.384,0.375,19.592,21.301,91.736
0.503,1.360,0.345,16.602,20.691,51.270
0.496,1.334,0.327,18.066,15.625,14.954
0.501,1.306,0.308,24.536,9.277,-15.869
0.508,1.224,0.298,28.625,2.075,-45.837
0.512,1.105,0.305,29.297,-5.371,-73.242
0.545,0.994,0.300,27.832,-13.123,-94.666
0.593,0.876,0.302,26.428,-22.888,-110.107
0.637,0.753,0.335,21.851,-35.767,-121.399
0.674,0.642,0.377,14.160,-48.645,-127.441
0.697,0.563,0.422,6.226,-57.800,-127.502
0.703,0.539,0.469,-0.183,-59.814,-124.695
0.735,0.550,0.485,-2.625,-55.725,-120.422
0.753,0.548,0.505,-4.333,-50.293,-118.286
0.764,0.527,0.508,-6.470,-43.640,-118.469
0.764,0.502,0.492,-5.676,-36.255,-119.446
0.775,0.496,0.452,-3.540,-30.151,-120.911
0.784,0.478,0.427,-0.427,-28.015,-124.084
0.772,0.455,0.410,3.540,-29.358,-127.563
0.772,0.422,0.407,7.507,-30.212,-131.775
0.751,0.376,0.392,9.827,-27.771,-135.376
0.782,0.347,0.366,3.479,-27.405,-133.484
0.814,0.284,0.389,-3.601,-30.151,-133.484
0.816,0.210,0.408,-1.282,-32.654,-137.146
0.819,0.163,0.403,-0.732,-31.982,-133.850
0.853,0.102,0.393,-1.648,-28.992,-126.953

0.991,-0.410,0.531,1.465,-1.953,-21.118
1.036,-0.545,0.563,-5.798,4.761,-6.653
1.062,-0.643,0.655,-29.846,16.724,12.939
1.144,-0.833,0.735,-32.227,27.954,28.748
1.209,-1.138,0.815,-30.457,41.077,41.931
1.179,-1.388,0.883,-47.058,60.608,69.580
1.069,-1.557,0.880,-59.143,92.285,124.390
0.871,-1.485,0.777,-59.937,134.399,193.420
0.632,-1.238,0.584,-33.936,178.650,269.287
0.528,-0.882,0.337,19.714,210.815,345.093
0.422,-0.467,0.105,57.068,220.581,394.836
0.349,-0.041,-0.079,60.913,208.923,412.048
0.324,0.270,-0.238,70.007,179.382,402.771
0.343,0.460,-0.325,79.590,136.292,381.775
0.347,0.615,-0.293,76.355,85.388,358.215
0.364,0.721,-0.185,73.547,38.330,333.496
0.458,0.752,-0.058,77.148,2.625,307.556
0.400,0.827,0.188,66.650,-24.536,276.062
0.375,0.958,0.390,60.730,-30.701,250.000
0.328,1.151,0.533,72.266,-21.912,235.718
0.319,1.486,0.601,80.750,-5.188,225.281
0.340,1.751,0.570,89.783,13.367,190.247
0.358,1.849,0.515,79.224,26.978,135.864
0.352,1.835,0.466,42.908,31.616,75.073
0.325,1.693,0.382,21.118,30.640,15.198
0.344,1.542,0.293,21.790,24.048,-32.288
0.375,1.387,0.230,26.794,11.230,-69.763
0.429,1.219,0.198,25.391,-5.615,-101.196
0.475,1.056,0.204,23.376,-25.818,-127.014
0.512,0.925,0.228,24.963,-48.035,-146.729
0.554,0.809,0.253,24.536,-68.848,-162.048
0.580,0.716,0.291,18.982,-86.853,-172.241
0.613,0.648,0.340,13.367,-99.731,-178.162
0.628,0.561,0.381,13.489,-107.239,-182.068
0.675,0.480,0.420,11.230,-108.398,-183.777
0.711,0.420,0.475,2.991,-104.858,-183.105
0.756,0.365,0.528,-3.479,-98.694,-179.199
0.784,0.285,0.566,-5.798,-90.332,-175.171
0.794,0.192,0.585,-11.108,-77.942,-170.532
0.822,0.121,0.590,-17.517,-63.721,-160.583
0.887,0.108,0.565,-17.212,-48.340,-145.203
0.893,0.109,0.549,-12.939,-32.532,-130.310
0.890,0.096,0.519,-11.414,-19.104,-119.080
0.895,0.076,0.469,-11.902,-7.324,-107.910
0.885,0.080,0.427,-13.123,0.183,-96.802
0.890,0.103,0.398,-13.245,3.357,-87.830
0.883,0.125,0.393,-14.099,3.052,-80.933
0.866,0.150,0.394,-15.259,1.465,-76.233
0.867,0.163,0.381,-13.855,1.038,-75.623
0.861,0.149,0.370,-11.902,-0.366,-77.576

