aX,aY,aZ,gX,gY,gZ
-0.013,-0.179,1.790,-4.684,2.464,-0.465
-0.045,-0.164,1.882,-4.337,2.459,-0.496
-0.074,-0.160,1.943,-4.067,2.402,-0.518
-0.104,-0.162,1.997,-3.791,2.306,-0.541
-0.128,-0.168,2.041,-3.508,2.190,-0.561
-0.142,-0.167,2.085,-3.219,2.068,-0.576
-0.146,-0.156,2.127,-2.930,1.955,-0.583
-0.152,-0.141,2.165,-2.646,1.849,-0.580
-0.164,-0.125,2.197,-2.363,1.745,-0.566
-0.182,-0.112,2.226,-2.079,1.627,-0.545
-0.201,-0.106,2.249,-1.797,1.485,-0.514
-0.218,-0.107,2.264,-1.514,1.318,-0.475
-0.232,-0.112,2.272,-1.226,1.136,-0.428
-0.243,-0.111,2.271,-0.933,0.945,-0.375
-0.269,-0.111,2.226,0.327,0.150,-0.113
-0.269,-0.114,2.203,0.599,-0.017,-0.049
-0.268,-0.117,2.173,0.861,-0.177,0.016
-0.265,-0.116,2.136,1.115,-0.331,0.082
-0.258,-0.116,2.088,1.363,-0.480,0.147
-0.249,-0.118,2.032,1.608,-0.622,0.212
-0.236,-0.123,1.971,1.852,-0.749,0.276
-0.224,-0.125,1.908,2.091,-0.848,0.335
-0.210,-0.120,1.845,2.323,-0.915,0.390
-0.194,-0.105,1.781,2.543,-0.955,0.438
-0.181,-0.087,1.726,2.748,-0.973,0.481
-0.169,-0.069,1.675,2.929,-0.978,0.519
-0.160,-0.053,1.625,3.086,-0.976,0.552
-0.153,-0.040,1.575,3.218,-0.977,0.585
-0.146,-0.027,1.530,3.325,-0.987,0.617
-0.139,-0.009,1.486,3.408,-1.007,0.646
-0.131,0.009,1.442,3.470,-1.043,0.673
-0.121,0.028,1.398,3.516,-1.091,0.696
-0.110,0.045,1.355,3.549,-1.146,0.716
-0.096,0.059,1.312,3.573,-1.202,0.731
-0.030,0.108,1.144,3.602,-1.338,0.742
-0.013,0.119,1.113,3.597,-1.329,0.732
0.004,0.130,1.083,3.590,-1.305,0.718
0.021,0.143,1.055,3.579,-1.269,0.702
0.036,0.157,1.032,3.565,-1.222,0.683
0.047,0.169,1.007,3.549,-1.169,0.661
0.057,0.182,0.983,3.533,-1.113,0.637
0.066,0.192,0.960,3.516,-1.058,0.612
0.071,0.203,0.938,3.501,-1.004,0.582
0.077,0.212,0.918,3.490,-0.949,0.550
0.081,0.217,0.898,3.481,-0.894,0.515
0.080,0.223,0.878,3.479,-0.840,0.478
0.080,0.226,0.857,3.481,-0.786,0.441
0.077,0.228,0.836,3.489,-0.739,0.402
0.072,0.230,0.815,3.501,-0.700,0.365
0.069,0.233,0.795,3.518,-0.670,0.329
0.067,0.241,0.773,3.541,-0.645,0.294
0.066,0.250,0.752,3.566,-0.624,0.263
0.064,0.259,0.732,3.594,-0.604,0.231
0.064,0.273,0.713,3.624,-0.583,0.202
0.062,0.285,0.692,3.650,-0.564,0.173
0.059,0.303,0.675,3.677,-0.547,0.146
0.062,0.323,0.660,3.698,-0.528,0.120
0.064,0.342,0.651,3.713,-0.508,0.096
0.066,0.359,0.637,3.719,-0.483,0.074
0.064,0.378,0.624,3.718,-0.452,0.053
0.063,0.399,0.614,3.708,-0.426,0.031
0.063,0.417,0.609,3.686,-0.403,0.015
0.067,0.489,0.594,3.501,-0.278,-0.016
0.071,0.520,0.591,3.439,-0.252,-0.022
0.075,0.552,0.591,3.370,-0.232,-0.031
0.078,0.573,0.588,3.301,-0.215,-0.039
0.078,0.585,0.585,3.229,-0.202,-0.049
0.079,0.594,0.582,3.158,-0.192,-0.057
0.077,0.599,0.580,3.087,-0.184,-0.067
0.074,0.604,0.577,3.020,-0.178,-0.076
0.070,0.607,0.575,2.956,-0.171,-0.082
0.065,0.608,0.572,2.898,-0.167,-0.088
0.057,0.611,0.564,2.841,-0.169,-0.094
0.052,0.616,0.559,2.789,-0.178,-0.098
0.047,0.621,0.555,2.743,-0.189,-0.100
0.042,0.624,0.546,2.700,-0.205,-0.102
0.038,0.626,0.537,2.664,-0.227,-0.102
0.035,0.626,0.528,2.632,-0.250,-0.102
0.033,0.625,0.518,2.604,-0.272,-0.101
0.035,0.627,0.509,2.581,-0.289,-0.099

0.289,0.868,-0.788,-1.775,-0.016,-0.276
0.289,0.868,-0.811,-2.079,0.040,-0.316
0.292,0.856,-0.837,-2.398,0.119,-0.361
0.293,0.846,-0.860,-2.723,0.215,-0.408
0.295,0.841,-0.871,-3.058,0.331,-0.457
0.295,0.831,-0.874,-3.404,0.457,-0.506
0.289,0.818,-0.870,-3.765,0.575,-0.549
0.277,0.801,-0.858,-4.137,0.678,-0.589
0.261,0.777,-0.835,-4.516,0.762,-0.623
0.242,0.747,-0.805,-4.900,0.834,-0.656
0.225,0.715,-0.764,-5.288,0.902,-0.689
0.206,0.683,-0.713,-5.673,0.974,-0.720
0.184,0.651,-0.653,-6.053,1.048,-0.752
0.160,0.619,-0.586,-6.423,1.121,-0.783
0.137,0.586,-0.511,-6.778,1.181,-0.812
0.113,0.556,-0.432,-7.114,1.227,-0.839
0.094,0.529,-0.352,-7.424,1.255,-0.861
0.081,0.501,-0.265,-7.703,1.270,-0.879
0.079,0.469,-0.176,-7.943,1.285,-0.890
0.107,0.332,0.264,-8.460,1.508,-0.826
0.108,0.305,0.379,-8.447,1.576,-0.793
0.108,0.284,0.497,-8.388,1.635,-0.757
0.107,0.270,0.615,-8.287,1.681,-0.718
0.106,0.262,0.736,-8.147,1.713,-0.680
0.104,0.262,0.855,-7.973,1.728,-0.644
0.098,0.263,0.972,-7.771,1.725,-0.613
0.096,0.276,1.085,-7.543,1.708,-0.592
0.102,0.302,1.191,-7.294,1.685,-0.578
0.108,0.337,1.292,-7.021,1.655,-0.573
0.113,0.365,1.388,-6.723,1.620,-0.577
0.114,0.385,1.481,-6.403,1.579,-0.586
0.110,0.391,1.567,-6.065,1.531,-0.598
0.101,0.393,1.647,-5.712,1.473,-0.611
0.085,0.392,1.720,-5.343,1.406,-0.625
0.067,0.398,1.789,-4.968,1.326,-0.637
0.047,0.408,1.848,-4.586,1.237,-0.650
0.026,0.422,1.900,-4.203,1.136,-0.662
0.006,0.437,1.944,-3.821,1.028,-0.669
-0.018,0.448,1.980,-3.441,0.914,-0.669
-0.042,0.457,2.007,-3.064,0.795,-0.663
-0.067,0.464,2.027,-2.698,0.667,-0.647
-0.149,0.501,2.021,-1.228,0.059,-0.435
-0.161,0.518,1.992,-0.839,-0.118,-0.326
-0.164,0.530,1.967,-0.567,-0.236,-0.233
-0.162,0.542,1.935,-0.316,-0.338,-0.132
-0.157,0.549,1.899,-0.082,-0.424,-0.023
-0.150,0.555,1.863,0.132,-0.488,0.088
-0.139,0.559,1.825,0.328,-0.536,0.201
-0.128,0.560,1.785,0.507,-0.567,0.312
-0.115,0.561,1.745,0.667,-0.585,0.419
-0.101,0.560,1.703,0.814,-0.593,0.519
-0.086,0.557,1.662,0.945,-0.593,0.614
-0.070,0.552,1.622,1.065,-0.586,0.700
-0.054,0.548,1.582,1.175,-0.575,0.778
-0.034,0.544,1.543,1.277,-0.560,0.848
-0.014,0.542,1.506,1.371,-0.537,0.909
0.007,0.544,1.466,1.459,-0.513,0.963
0.026,0.547,1.429,1.544,-0.491,1.007
0.044,0.549,1.393,1.625,-0.473,1.045
0.056,0.551,1.370,1.677,-0.464,1.065
0.073,0.551,1.336,1.755,-0.461,1.090
0.090,0.550,1.299,1.828,-0.465,1.109
0.105,0.548,1.263,1.901,-0.478,1.120
0.120,0.547,1.229,1.971,-0.497,1.124
0.186,0.557,1.065,2.275,-0.625,1.059
0.200,0.560,1.030,2.338,-0.651,1.030
0.211,0.563,0.996,2.401,-0.674,0.997
0.223,0.565,0.962,2.462,-0.687,0.961
0.230,0.567,0.940,2.501,-0.693,0.935
0.238,0.569,0.908,2.557,-0.692,0.896
0.243,0.570,0.878,2.613,-0.682,0.856
0.247,0.572,0.847,2.664,-0.665,0.816
0.250,0.576,0.816,2.714,-0.645,0.776
0.252,0.582,0.789,2.762,-0.623,0.736
0.255,0.586,0.763,2.805,-0.599,0.698
0.255,0.587,0.739,2.847,-0.575,0.663
0.256,0.586,0.716,2.886,-0.549,0.631
0.256,0.582,0.692,2.921,-0.525,0.601
0.256,0.577,0.672,2.955,-0.503,0.577
0.257,0.574,0.651,2.985,-0.484,0.557

0.099,0.374,1.498,-5.515,1.956,-0.594
0.081,0.385,1.565,-5.263,1.840,-0.653
0.061,0.391,1.630,-5.000,1.710,-0.709
0.040,0.391,1.687,-4.726,1.565,-0.755
0.020,0.390,1.739,-4.443,1.412,-0.789
-0.000,0.388,1.783,-4.153,1.252,-0.809
-0.019,0.388,1.823,-3.856,1.089,-0.815
-0.035,0.394,1.858,-3.557,0.926,-0.807
-0.048,0.403,1.886,-3.255,0.765,-0.785
-0.058,0.414,1.906,-2.957,0.612,-0.749
-0.062,0.426,1.920,-2.662,0.466,-0.702
-0.061,0.438,1.930,-2.375,0.330,-0.643
-0.060,0.445,1.931,-2.092,0.208,-0.571
-0.059,0.448,1.927,-1.815,0.098,-0.491
-0.058,0.447,1.923,-1.542,0.002,-0.405
-0.058,0.448,1.912,-1.276,-0.079,-0.319
-0.057,0.449,1.896,-1.018,-0.147,-0.235
-0.054,0.448,1.879,-0.770,-0.202,-0.154
-0.052,0.448,1.859,-0.531,-0.246,-0.079
-0.032,0.465,1.757,0.387,-0.350,0.167
-0.027,0.471,1.733,0.570,-0.359,0.208
-0.020,0.474,1.708,0.744,-0.368,0.246
-0.014,0.474,1.682,0.907,-0.378,0.281
-0.008,0.475,1.652,1.063,-0.392,0.316
-0.001,0.475,1.622,1.212,-0.410,0.349
0.006,0.475,1.591,1.356,-0.434,0.381
0.010,0.477,1.557,1.495,-0.467,0.411
0.017,0.479,1.522,1.628,-0.510,0.438
0.024,0.481,1.486,1.757,-0.561,0.462
0.033,0.482,1.447,1.883,-0.615,0.482
0.044,0.483,1.406,2.006,-0.669,0.500
0.055,0.483,1.365,2.126,-0.720,0.514
0.064,0.482,1.319,2.244,-0.766,0.524
0.075,0.484,1.274,2.360,-0.807,0.530
0.087,0.484,1.231,2.473,-0.841,0.533
0.096,0.486,1.187,2.583,-0.868,0.533
0.107,0.490,1.145,2.686,-0.892,0.532
0.118,0.496,1.100,2.784,-0.906,0.527
0.126,0.500,1.056,2.874,-0.908,0.520
0.136,0.507,1.014,2.955,-0.899,0.512
0.144,0.514,0.975,3.028,-0.880,0.503
0.149,0.523,0.936,3.092,-0.852,0.493
0.155,0.535,0.899,3.145,-0.819,0.480
0.160,0.549,0.865,3.188,-0.780,0.466
0.165,0.562,0.831,3.221,-0.734,0.452
0.168,0.577,0.801,3.247,-0.685,0.438
0.177,0.629,0.691,3.268,-0.436,0.376
0.175,0.636,0.669,3.257,-0.378,0.363
0.171,0.642,0.650,3.240,-0.325,0.351
0.167,0.651,0.635,3.219,-0.279,0.341
0.162,0.661,0.621,3.196,-0.245,0.330
0.157,0.672,0.610,3.169,-0.223,0.319
0.152,0.680,0.596,3.138,-0.213,0.310
0.150,0.689,0.584,3.108,-0.212,0.301
0.149,0.695,0.573,3.077,-0.218,0.293
0.147,0.702,0.561,3.046,-0.232,0.285
0.145,0.707,0.546,3.016,-0.254,0.280
0.144,0.711,0.532,2.988,-0.285,0.275
0.145,0.715,0.520,2.963,-0.321,0.270
0.149,0.719,0.506,2.937,-0.358,0.268
0.153,0.723,0.494,2.914,-0.393,0.266
0.157,0.726,0.483,2.891,-0.424,0.265
0.161,0.729,0.472,2.870,-0.448,0.265
0.165,0.731,0.462,2.847,-0.466,0.262
0.170,0.734,0.453,2.823,-0.477,0.260
0.174,0.737,0.447,2.805,-0.482,0.258
0.180,0.745,0.438,2.778,-0.485,0.252
0.188,0.753,0.428,2.748,-0.485,0.248
0.197,0.759,0.417,2.716,-0.483,0.244
0.207,0.764,0.408,2.684,-0.476,0.239
0.217,0.768,0.399,2.651,-0.461,0.234
0.227,0.771,0.391,2.620,-0.440,0.230
0.237,0.773,0.382,2.590,-0.410,0.225
0.247,0.773,0.373,2.562,-0.372,0.220
0.279,0.783,0.343,2.445,-0.154,0.189
0.282,0.788,0.338,2.419,-0.115,0.178
0.284,0.792,0.337,2.402,-0.093,0.168
0.284,0.795,0.331,2.374,-0.068,0.153
0.281,0.800,0.325,2.346,-0.053,0.136
0.279,0.805,0.320,2.316,-0.049,0.117

-0.093,0.264,1.668,-5.156,1.854,-0.826
-0.113,0.267,1.713,-4.911,1.647,-0.824
-0.131,0.271,1.755,-4.661,1.421,-0.815
-0.143,0.270,1.793,-4.405,1.187,-0.803
-0.151,0.268,1.826,-4.144,0.952,-0.784
-0.155,0.266,1.853,-3.878,0.728,-0.759
-0.156,0.263,1.874,-3.606,0.514,-0.727
-0.156,0.261,1.895,-3.329,0.309,-0.687
-0.156,0.257,1.913,-3.048,0.116,-0.642
-0.154,0.251,1.927,-2.764,-0.062,-0.592
-0.150,0.249,1.935,-2.480,-0.221,-0.538
-0.140,0.251,1.945,-2.193,-0.358,-0.481
-0.129,0.253,1.951,-1.907,-0.469,-0.421
-0.118,0.254,1.953,-1.622,-0.554,-0.362
-0.107,0.256,1.952,-1.337,-0.615,-0.301
-0.098,0.256,1.950,-1.053,-0.653,-0.242
-0.092,0.254,1.943,-0.772,-0.676,-0.185
-0.086,0.250,1.934,-0.495,-0.689,-0.129
-0.084,0.236,1.858,0.635,-0.718,0.099
-0.086,0.234,1.831,0.876,-0.729,0.147
-0.085,0.234,1.801,1.107,-0.738,0.193
-0.083,0.234,1.768,1.327,-0.744,0.236
-0.083,0.239,1.733,1.537,-0.748,0.279
-0.081,0.245,1.696,1.735,-0.756,0.321
-0.079,0.253,1.661,1.920,-0.768,0.363
-0.077,0.261,1.626,2.091,-0.789,0.404
-0.075,0.271,1.589,2.251,-0.816,0.445
-0.071,0.281,1.549,2.399,-0.852,0.485
-0.065,0.291,1.511,2.534,-0.895,0.525
-0.058,0.301,1.472,2.661,-0.941,0.561
-0.048,0.311,1.433,2.778,-0.989,0.596
-0.037,0.320,1.393,2.888,-1.038,0.630
-0.024,0.330,1.352,2.990,-1.082,0.662
-0.013,0.340,1.312,3.087,-1.123,0.690
-0.000,0.349,1.272,3.178,-1.158,0.714
0.012,0.359,1.236,3.263,-1.191,0.735
0.026,0.369,1.198,3.345,-1.219,0.755
0.041,0.379,1.164,3.419,-1.241,0.768
0.054,0.387,1.128,3.492,-1.255,0.780
0.065,0.392,1.095,3.559,-1.260,0.788
0.075,0.395,1.060,3.624,-1.259,0.793
0.084,0.397,1.027,3.685,-1.254,0.795
0.106,0.419,0.889,3.912,-1.222,0.764
0.110,0.429,0.861,3.951,-1.224,0.749
0.116,0.440,0.833,3.986,-1.227,0.731
0.123,0.451,0.807,4.015,-1.227,0.709
0.130,0.462,0.778,4.042,-1.222,0.686
0.137,0.475,0.750,4.065,-1.213,0.663
0.146,0.487,0.722,4.086,-1.199,0.640
0.155,0.498,0.697,4.103,-1.179,0.617
0.164,0.508,0.674,4.119,-1.153,0.598
0.172,0.519,0.651,4.129,-1.120,0.579
0.181,0.531,0.630,4.137,-1.078,0.561
0.187,0.543,0.611,4.141,-1.030,0.545
0.193,0.555,0.594,4.140,-0.977,0.529
0.198,0.569,0.576,4.136,-0.921,0.512
0.202,0.581,0.560,4.126,-0.863,0.495
0.204,0.594,0.542,4.112,-0.807,0.477
0.204,0.606,0.525,4.093,-0.751,0.459
0.203,0.618,0.512,4.070,-0.701,0.438
0.200,0.628,0.497,4.043,-0.656,0.418
0.198,0.637,0.483,4.014,-0.619,0.398
0.194,0.644,0.469,3.982,-0.593,0.378
0.190,0.651,0.455,3.949,-0.578,0.357
0.188,0.660,0.441,3.913,-0.573,0.337
0.188,0.670,0.427,3.875,-0.575,0.319
0.190,0.679,0.415,3.837,-0.580,0.301
0.191,0.688,0.403,3.797,-0.582,0.285
0.193,0.696,0.390,3.756,-0.580,0.271
0.198,0.705,0.378,3.714,-0.573,0.259
0.230,0.755,0.333,3.548,-0.470,0.228
0.239,0.765,0.325,3.514,-0.429,0.229
0.248,0.770,0.316,3.483,-0.382,0.232
0.253,0.770,0.309,3.456,-0.333,0.235
0.256,0.769,0.301,3.429,-0.283,0.238
0.261,0.769,0.293,3.404,-0.233,0.243
0.265,0.768,0.284,3.382,-0.186,0.245
0.269,0.772,0.278,3.362,-0.143,0.246
0.281,0.780,0.272,3.343,-0.094,0.244
0.288,0.778,0.262,3.328,-0.037,0.239

-0.060,0.284,1.638,-5.426,1.979,-0.675
-0.069,0.283,1.694,-5.108,1.873,-0.668
-0.075,0.286,1.748,-4.784,1.772,-0.659
-0.079,0.288,1.798,-4.450,1.679,-0.648
-0.081,0.290,1.842,-4.109,1.597,-0.632
-0.086,0.291,1.883,-3.763,1.527,-0.612
-0.095,0.292,1.920,-3.416,1.462,-0.589
-0.110,0.292,1.953,-3.070,1.395,-0.560
-0.128,0.289,1.978,-2.731,1.316,-0.529
-0.150,0.285,2.003,-2.393,1.224,-0.497
-0.172,0.282,2.023,-2.062,1.117,-0.464
-0.192,0.276,2.034,-1.737,0.999,-0.431
-0.211,0.272,2.038,-1.419,0.873,-0.397
-0.230,0.271,2.039,-1.108,0.738,-0.359
-0.244,0.274,2.037,-0.806,0.594,-0.316
-0.255,0.281,2.030,-0.513,0.444,-0.269
-0.264,0.294,2.020,-0.234,0.288,-0.217
-0.270,0.305,2.007,0.030,0.126,-0.161
-0.272,0.313,1.988,0.279,-0.042,-0.099
-0.271,0.319,1.963,0.513,-0.208,-0.036
-0.219,0.322,1.812,1.401,-0.756,0.246
-0.201,0.322,1.773,1.583,-0.833,0.305
-0.181,0.322,1.732,1.759,-0.893,0.362
-0.161,0.322,1.692,1.931,-0.930,0.415
-0.143,0.324,1.652,2.095,-0.951,0.466
-0.127,0.330,1.609,2.253,-0.962,0.512
-0.112,0.335,1.569,2.404,-0.967,0.556
-0.098,0.338,1.529,2.547,-0.972,0.594
-0.085,0.341,1.490,2.682,-0.975,0.628
-0.073,0.343,1.450,2.807,-0.975,0.658
-0.062,0.345,1.411,2.926,-0.973,0.685
-0.050,0.351,1.371,3.037,-0.972,0.710
-0.038,0.358,1.331,3.143,-0.973,0.729
-0.027,0.365,1.292,3.242,-0.973,0.747
-0.015,0.370,1.254,3.336,-0.972,0.761
-0.006,0.374,1.215,3.426,-0.972,0.774
0.001,0.379,1.179,3.511,-0.975,0.783
0.007,0.385,1.141,3.591,-0.981,0.790
0.014,0.391,1.103,3.665,-0.992,0.793
0.019,0.398,1.066,3.733,-1.007,0.794
0.022,0.406,1.030,3.796,-1.027,0.791
0.027,0.417,0.995,3.854,-1.051,0.784
0.031,0.429,0.962,3.908,-1.080,0.775
0.033,0.441,0.926,3.958,-1.114,0.763
0.069,0.500,0.789,4.126,-1.237,0.697
0.078,0.513,0.760,4.159,-1.242,0.683
0.088,0.524,0.732,4.189,-1.237,0.669
0.096,0.532,0.705,4.215,-1.224,0.657
0.102,0.537,0.679,4.239,-1.202,0.644
0.108,0.542,0.653,4.260,-1.175,0.631
0.112,0.548,0.629,4.277,-1.146,0.619
0.115,0.555,0.604,4.290,-1.114,0.607
0.120,0.564,0.583,4.296,-1.080,0.595
0.127,0.578,0.561,4.299,-1.043,0.582
0.130,0.593,0.544,4.297,-1.007,0.568
0.133,0.607,0.523,4.292,-0.976,0.552
0.134,0.619,0.506,4.281,-0.947,0.535
0.137,0.629,0.486,4.266,-0.918,0.516
0.142,0.637,0.468,4.249,-0.888,0.498
0.145,0.643,0.451,4.230,-0.854,0.481
0.147,0.650,0.435,4.207,-0.822,0.463
0.152,0.658,0.420,4.180,-0.789,0.447
0.156,0.667,0.402,4.152,-0.756,0.432
0.156,0.677,0.387,4.120,-0.724,0.418
0.159,0.689,0.372,4.086,-0.695,0.402
0.161,0.701,0.360,4.048,-0.669,0.386
0.164,0.712,0.346,4.009,-0.645,0.368
0.166,0.721,0.335,3.968,-0.620,0.352
0.170,0.729,0.324,3.925,-0.596,0.336
0.174,0.735,0.311,3.880,-0.570,0.321
0.174,0.742,0.300,3.838,-0.544,0.308
0.175,0.747,0.290,3.793,-0.518,0.294
0.196,0.790,0.239,3.618,-0.398,0.229
0.190,0.790,0.234,3.588,-0.374,0.213
0.184,0.789,0.229,3.556,-0.353,0.195
0.183,0.789,0.222,3.523,-0.341,0.177
0.182,0.792,0.215,3.490,-0.337,0.161
0.181,0.795,0.204,3.457,-0.344,0.148
0.183,0.799,0.196,3.425,-0.360,0.136
0.186,0.801,0.187,3.392,-0.379,0.128

-0.047,0.293,1.655,-4.852,2.683,-0.657
-0.077,0.292,1.717,-4.528,2.584,-0.681
-0.105,0.295,1.774,-4.199,2.462,-0.699
-0.134,0.304,1.825,-3.865,2.318,-0.711
-0.169,0.322,1.883,-3.415,2.097,-0.715
-0.194,0.337,1.921,-3.077,1.909,-0.712
-0.218,0.350,1.956,-2.741,1.709,-0.701
-0.241,0.360,1.983,-2.409,1.495,-0.683
-0.264,0.371,2.006,-2.082,1.274,-0.657
-0.283,0.383,2.021,-1.759,1.043,-0.623
-0.299,0.395,2.030,-1.444,0.807,-0.580
-0.312,0.407,2.035,-1.137,0.569,-0.530
-0.322,0.417,2.033,-0.835,0.332,-0.473
-0.330,0.426,2.028,-0.543,0.096,-0.409
-0.333,0.434,2.014,-0.261,-0.137,-0.338
-0.329,0.438,1.995,0.012,-0.359,-0.263
-0.321,0.439,1.971,0.276,-0.558,-0.184
-0.309,0.439,1.939,0.532,-0.729,-0.102
-0.292,0.438,1.904,0.781,-0.872,-0.020
-0.201,0.429,1.716,1.745,-1.153,0.319
-0.182,0.427,1.672,1.937,-1.158,0.387
-0.165,0.425,1.625,2.118,-1.150,0.451
-0.148,0.423,1.577,2.286,-1.133,0.510
-0.133,0.422,1.532,2.442,-1.113,0.562
-0.120,0.423,1.484,2.587,-1.092,0.608
-0.107,0.424,1.438,2.723,-1.074,0.648
-0.095,0.427,1.391,2.849,-1.059,0.683
-0.083,0.430,1.348,2.965,-1.048,0.713
-0.072,0.434,1.304,3.071,-1.045,0.738
-0.061,0.439,1.262,3.170,-1.049,0.758
-0.050,0.446,1.223,3.260,-1.060,0.773
-0.042,0.450,1.198,3.315,-1.072,0.780
-0.031,0.457,1.159,3.392,-1.096,0.788
-0.020,0.461,1.121,3.461,-1.129,0.793
-0.009,0.466,1.081,3.523,-1.164,0.793
0.003,0.472,1.042,3.577,-1.205,0.789
0.016,0.481,1.004,3.627,-1.247,0.782
0.027,0.488,0.967,3.672,-1.290,0.770
0.039,0.498,0.929,3.713,-1.331,0.757
0.052,0.507,0.894,3.749,-1.366,0.740
0.061,0.515,0.857,3.781,-1.394,0.717
0.071,0.522,0.822,3.810,-1.414,0.694
0.078,0.530,0.785,3.835,-1.428,0.666
0.106,0.582,0.642,3.904,-1.408,0.524
0.113,0.592,0.624,3.910,-1.391,0.503
0.123,0.606,0.596,3.917,-1.357,0.478
0.134,0.619,0.568,3.924,-1.308,0.454
0.145,0.627,0.543,3.931,-1.243,0.433
0.152,0.635,0.520,3.936,-1.167,0.416
0.155,0.642,0.498,3.941,-1.084,0.401
0.156,0.652,0.478,3.943,-0.998,0.387
0.154,0.664,0.460,3.943,-0.912,0.375
0.155,0.675,0.443,3.940,-0.829,0.361
0.151,0.687,0.427,3.934,-0.750,0.349
0.148,0.699,0.413,3.924,-0.679,0.336
0.143,0.708,0.399,3.911,-0.620,0.324
0.139,0.718,0.385,3.893,-0.574,0.311
0.136,0.726,0.371,3.872,-0.537,0.299
0.133,0.735,0.357,3.848,-0.510,0.288
0.141,0.748,0.345,3.823,-0.479,0.276
0.147,0.746,0.327,3.805,-0.424,0.263
0.141,0.741,0.315,3.791,-0.382,0.251
0.134,0.737,0.309,3.774,-0.348,0.241
0.131,0.737,0.303,3.750,-0.321,0.229
0.129,0.742,0.298,3.723,-0.308,0.218
0.131,0.753,0.293,3.691,-0.303,0.210
0.135,0.766,0.283,3.656,-0.304,0.203
0.139,0.779,0.273,3.618,-0.306,0.197
0.142,0.791,0.263,3.579,-0.306,0.189
0.148,0.801,0.255,3.540,-0.301,0.182
0.154,0.812,0.246,3.498,-0.288,0.173
0.176,0.847,0.213,3.311,-0.144,0.139
0.178,0.851,0.205,3.264,-0.106,0.131
0.178,0.854,0.196,3.216,-0.078,0.123
0.175,0.856,0.190,3.167,-0.059,0.117
0.175,0.856,0.185,3.117,-0.050,0.111
0.174,0.860,0.181,3.063,-0.049,0.103
0.173,0.864,0.175,3.006,-0.053,0.096
0.174,0.869,0.169,2.949,-0.064,0.088
0.173,0.876,0.161,2.890,-0.080,0.080

-0.172,0.229,1.635,-5.343,3.067,-0.684
-0.199,0.222,1.704,-5.040,2.884,-0.689
-0.225,0.221,1.767,-4.723,2.681,-0.692
-0.252,0.222,1.828,-4.396,2.458,-0.692
-0.276,0.226,1.883,-4.059,2.218,-0.690
-0.297,0.235,1.938,-3.714,1.963,-0.682
-0.314,0.250,1.987,-3.361,1.701,-0.672
-0.325,0.270,2.029,-3.004,1.432,-0.653
-0.335,0.289,2.068,-2.645,1.166,-0.629
-0.341,0.302,2.097,-2.279,0.906,-0.595
-0.346,0.311,2.121,-1.911,0.657,-0.551
-0.349,0.321,2.140,-1.544,0.420,-0.498
-0.348,0.332,2.151,-1.179,0.201,-0.433
-0.346,0.339,2.154,-0.817,-0.002,-0.359
-0.346,0.344,2.151,-0.461,-0.188,-0.278
-0.345,0.349,2.141,-0.113,-0.362,-0.193
-0.344,0.353,2.123,0.225,-0.525,-0.105
-0.339,0.353,2.098,0.552,-0.676,-0.017
-0.330,0.346,2.068,0.868,-0.813,0.072
-0.289,0.310,1.882,2.082,-1.227,0.435
-0.275,0.309,1.833,2.319,-1.297,0.504
-0.261,0.310,1.783,2.537,-1.360,0.569
-0.246,0.313,1.731,2.736,-1.419,0.629
-0.229,0.317,1.677,2.918,-1.473,0.683
-0.210,0.319,1.623,3.084,-1.522,0.733
-0.191,0.319,1.568,3.234,-1.567,0.779
-0.175,0.318,1.511,3.371,-1.602,0.818
-0.157,0.318,1.457,3.495,-1.628,0.852
-0.141,0.320,1.403,3.607,-1.648,0.879
-0.126,0.327,1.350,3.706,-1.663,0.902
-0.113,0.336,1.300,3.795,-1.677,0.918
-0.098,0.350,1.250,3.877,-1.689,0.928
-0.083,0.366,1.204,3.948,-1.703,0.932
-0.068,0.383,1.161,4.013,-1.719,0.933
-0.050,0.398,1.118,4.070,-1.731,0.931
-0.032,0.410,1.074,4.119,-1.738,0.927
-0.016,0.422,1.033,4.163,-1.737,0.923
-0.001,0.433,0.992,4.204,-1.727,0.916
0.016,0.447,0.952,4.240,-1.708,0.909
0.030,0.459,0.914,4.273,-1.681,0.899
0.042,0.473,0.880,4.304,-1.652,0.889
0.055,0.487,0.845,4.332,-1.618,0.876
0.068,0.499,0.812,4.358,-1.581,0.862
0.112,0.536,0.678,4.434,-1.393,0.809
0.116,0.541,0.651,4.445,-1.349,0.795
0.120,0.549,0.622,4.456,-1.309,0.779
0.123,0.557,0.596,4.463,-1.276,0.762
0.127,0.567,0.567,4.471,-1.246,0.743
0.130,0.574,0.539,4.479,-1.222,0.722
0.131,0.579,0.514,4.487,-1.205,0.699
0.132,0.582,0.488,4.495,-1.194,0.675
0.135,0.587,0.464,4.502,-1.184,0.650
0.139,0.592,0.438,4.508,-1.176,0.625
0.142,0.598,0.415,4.512,-1.165,0.596
0.145,0.605,0.392,4.514,-1.155,0.568
0.150,0.613,0.369,4.512,-1.143,0.538
0.153,0.625,0.349,4.506,-1.130,0.509
0.165,0.650,0.327,4.494,-1.110,0.478
0.181,0.663,0.301,4.486,-1.056,0.445
0.183,0.670,0.282,4.479,-0.995,0.414
0.179,0.678,0.272,4.468,-0.947,0.385
0.177,0.686,0.259,4.443,-0.907,0.355
0.176,0.693,0.247,4.411,-0.872,0.329
0.177,0.702,0.233,4.372,-0.846,0.303
0.182,0.712,0.221,4.324,-0.826,0.281
0.187,0.725,0.206,4.272,-0.806,0.262
0.193,0.740,0.192,4.214,-0.780,0.244
0.199,0.755,0.181,4.154,-0.748,0.225
0.203,0.771,0.169,4.091,-0.711,0.204
0.205,0.786,0.156,4.026,-0.670,0.182
0.208,0.798,0.141,3.961,-0.629,0.162
0.212,0.816,0.097,3.661,-0.453,0.082
0.215,0.820,0.086,3.592,-0.413,0.068
0.214,0.824,0.075,3.523,-0.375,0.056
0.214,0.829,0.064,3.452,-0.339,0.047
0.218,0.835,0.054,3.384,-0.308,0.038
0.220,0.843,0.045,3.314,-0.279,0.032
0.224,0.853,0.035,3.244,-0.250,0.027
0.227,0.865,0.024,3.172,-0.221,0.021
0.231,0.877,0.018,3.098,-0.192,0.017

-0.163,0.109,1.788,-4.639,3.311,-0.598
-0.189,0.120,1.857,-4.285,3.128,-0.589
-0.211,0.136,1.920,-3.921,2.914,-0.575
-0.231,0.153,1.975,-3.550,2.682,-0.559
-0.251,0.167,2.025,-3.175,2.438,-0.540
-0.272,0.177,2.070,-2.791,2.182,-0.518
-0.295,0.187,2.106,-2.413,1.913,-0.498
-0.316,0.198,2.137,-2.033,1.629,-0.479
-0.335,0.206,2.161,-1.657,1.337,-0.460
-0.353,0.208,2.178,-1.286,1.040,-0.441
-0.367,0.209,2.184,-0.919,0.745,-0.419
-0.373,0.211,2.182,-0.558,0.457,-0.394
-0.377,0.217,2.172,-0.203,0.185,-0.363
-0.377,0.224,2.153,0.144,-0.070,-0.326
-0.377,0.232,2.125,0.480,-0.312,-0.283
-0.375,0.240,2.092,0.803,-0.542,-0.234
-0.370,0.243,2.050,1.114,-0.759,-0.181
-0.362,0.245,2.004,1.407,-0.959,-0.122
-0.350,0.244,1.951,1.684,-1.140,-0.057
-0.280,0.252,1.700,2.678,-1.644,0.245
-0.261,0.260,1.638,2.860,-1.691,0.312
-0.241,0.268,1.579,3.026,-1.714,0.379
-0.223,0.273,1.524,3.176,-1.716,0.442
-0.206,0.278,1.470,3.312,-1.697,0.503
-0.190,0.286,1.420,3.434,-1.666,0.562
-0.176,0.295,1.370,3.544,-1.626,0.617
-0.163,0.306,1.324,3.641,-1.585,0.668
-0.148,0.318,1.283,3.726,-1.538,0.715
-0.133,0.329,1.244,3.800,-1.490,0.759
-0.123,0.338,1.205,3.864,-1.443,0.799
-0.113,0.348,1.168,3.918,-1.399,0.836
-0.102,0.356,1.132,3.962,-1.362,0.868
-0.095,0.367,1.099,3.997,-1.336,0.896
-0.087,0.379,1.067,4.026,-1.315,0.918
-0.075,0.391,1.036,4.048,-1.303,0.934
-0.063,0.401,1.005,4.066,-1.295,0.946
-0.055,0.410,0.974,4.080,-1.293,0.952
-0.048,0.421,0.941,4.093,-1.300,0.956
-0.042,0.432,0.912,4.104,-1.316,0.954
-0.034,0.446,0.885,4.115,-1.341,0.947
-0.025,0.457,0.858,4.126,-1.371,0.939
-0.014,0.465,0.831,4.137,-1.402,0.927
0.028,0.496,0.717,4.171,-1.492,0.872
0.039,0.502,0.695,4.175,-1.495,0.859
0.049,0.508,0.672,4.179,-1.490,0.846
0.061,0.519,0.649,4.182,-1.477,0.834
0.076,0.531,0.627,4.185,-1.454,0.823
0.091,0.542,0.602,4.188,-1.418,0.813
0.107,0.552,0.582,4.192,-1.373,0.803
0.120,0.561,0.560,4.197,-1.320,0.796
0.132,0.570,0.540,4.204,-1.256,0.788
0.141,0.581,0.520,4.211,-1.187,0.777
0.147,0.590,0.503,4.219,-1.114,0.764
0.150,0.600,0.488,4.224,-1.045,0.747
0.154,0.611,0.472,4.227,-0.981,0.728
0.158,0.623,0.458,4.228,-0.924,0.706
0.160,0.635,0.444,4.227,-0.876,0.681
0.163,0.644,0.430,4.221,-0.835,0.656
0.164,0.652,0.415,4.212,-0.801,0.627
0.163,0.658,0.402,4.202,-0.775,0.599
0.162,0.666,0.385,4.189,-0.757,0.568
0.163,0.672,0.369,4.172,-0.747,0.538
0.165,0.679,0.354,4.152,-0.744,0.508
0.172,0.688,0.347,4.136,-0.739,0.485
0.185,0.692,0.329,4.110,-0.708,0.451
0.185,0.696,0.312,4.089,-0.669,0.418
0.184,0.701,0.303,4.062,-0.639,0.386
0.180,0.709,0.295,4.028,-0.615,0.354
0.176,0.719,0.285,3.986,-0.601,0.325
0.176,0.731,0.274,3.938,-0.598,0.296
0.209,0.800,0.224,3.643,-0.589,0.205
0.219,0.815,0.211,3.570,-0.567,0.193
0.226,0.827,0.203,3.499,-0.532,0.180
0.230,0.833,0.197,3.453,-0.502,0.171
0.235,0.843,0.187,3.385,-0.449,0.158
0.237,0.850,0.176,3.317,-0.390,0.145
0.237,0.855,0.167,3.251,-0.328,0.133
0.237,0.859,0.160,3.187,-0.267,0.122
0.235,0.865,0.155,3.122,-0.213,0.114
0.232,0.860,0.148,3.055,-0.167,0.106

-0.113,0.314,1.533,-4.029,2.653,-0.825
-0.139,0.314,1.575,-3.808,2.606,-0.801
-0.162,0.316,1.617,-3.583,2.525,-0.778
-0.185,0.316,1.658,-3.358,2.413,-0.753
-0.206,0.316,1.695,-3.130,2.272,-0.730
-0.225,0.312,1.730,-2.899,2.111,-0.706
-0.241,0.307,1.758,-2.666,1.938,-0.680
-0.255,0.298,1.783,-2.432,1.758,-0.654
-0.268,0.291,1.803,-2.190,1.576,-0.628
-0.280,0.283,1.819,-1.946,1.394,-0.600
-0.288,0.279,1.832,-1.699,1.216,-0.573
-0.296,0.279,1.842,-1.449,1.044,-0.544
-0.301,0.284,1.848,-1.202,0.874,-0.515
-0.309,0.290,1.852,-0.954,0.709,-0.484
-0.313,0.293,1.849,-0.709,0.551,-0.451
-0.317,0.297,1.842,-0.468,0.401,-0.416
-0.321,0.299,1.832,-0.232,0.258,-0.375
-0.325,0.303,1.818,0.000,0.123,-0.330
-0.329,0.306,1.798,0.227,-0.005,-0.280
-0.330,0.308,1.774,0.447,-0.129,-0.226
-0.302,0.330,1.634,1.335,-0.536,0.054
-0.293,0.337,1.596,1.521,-0.595,0.122
-0.283,0.342,1.557,1.701,-0.644,0.192
-0.272,0.345,1.520,1.870,-0.685,0.259
-0.264,0.348,1.478,2.031,-0.723,0.322
-0.255,0.354,1.438,2.181,-0.761,0.382
-0.246,0.360,1.397,2.323,-0.800,0.437
-0.236,0.368,1.357,2.454,-0.841,0.488
-0.224,0.372,1.320,2.575,-0.881,0.534
-0.212,0.377,1.283,2.688,-0.917,0.576
-0.202,0.380,1.246,2.791,-0.948,0.613
-0.192,0.383,1.209,2.888,-0.974,0.646
-0.181,0.385,1.175,2.976,-0.997,0.676
-0.170,0.390,1.140,3.054,-1.021,0.700
-0.160,0.395,1.106,3.124,-1.043,0.720
-0.149,0.402,1.072,3.184,-1.067,0.738
-0.136,0.410,1.039,3.236,-1.093,0.751
-0.123,0.418,1.011,3.281,-1.117,0.761
-0.111,0.427,0.981,3.318,-1.142,0.767
-0.096,0.439,0.953,3.347,-1.159,0.770
-0.082,0.450,0.928,3.371,-1.170,0.770
-0.071,0.461,0.902,3.388,-1.173,0.766
-0.059,0.472,0.879,3.403,-1.172,0.759
-0.011,0.528,0.789,3.423,-1.122,0.699
-0.002,0.538,0.767,3.421,-1.101,0.682
0.005,0.546,0.747,3.419,-1.079,0.664
0.015,0.553,0.730,3.417,-1.056,0.646
0.022,0.558,0.714,3.412,-1.027,0.629
0.030,0.563,0.697,3.404,-0.993,0.613
0.037,0.568,0.681,3.396,-0.951,0.597
0.044,0.574,0.666,3.385,-0.904,0.582
0.049,0.581,0.650,3.373,-0.849,0.566
0.054,0.591,0.639,3.358,-0.790,0.550
0.061,0.604,0.626,3.341,-0.726,0.534
0.064,0.619,0.615,3.324,-0.659,0.518
0.065,0.631,0.605,3.305,-0.594,0.502
0.068,0.642,0.591,3.285,-0.532,0.487
0.069,0.650,0.581,3.265,-0.474,0.473
0.066,0.656,0.572,3.243,-0.424,0.460
0.065,0.662,0.565,3.220,-0.381,0.449
0.062,0.667,0.554,3.197,-0.347,0.437
0.059,0.672,0.546,3.172,-0.324,0.427
0.056,0.679,0.540,3.148,-0.308,0.417
0.055,0.688,0.531,3.122,-0.298,0.408
0.055,0.694,0.524,3.097,-0.294,0.399
0.057,0.700,0.515,3.069,-0.293,0.392
0.059,0.707,0.508,3.042,-0.289,0.385
0.063,0.715,0.500,3.015,-0.282,0.381
0.068,0.726,0.494,2.987,-0.272,0.377
0.069,0.738,0.489,2.962,-0.260,0.372
0.071,0.748,0.483,2.937,-0.248,0.368
0.087,0.779,0.461,2.848,-0.205,0.369
0.098,0.788,0.458,2.832,-0.190,0.374
0.107,0.787,0.448,2.821,-0.163,0.379
0.106,0.783,0.443,2.813,-0.145,0.386
0.101,0.777,0.442,2.802,-0.132,0.391
0.100,0.772,0.439,2.789,-0.122,0.394
0.100,0.770,0.435,2.774,-0.119,0.396
0.103,0.772,0.429,2.760,-0.122,0.399
0.107,0.777,0.423,2.743,-0.132,0.401

-0.235,0.171,1.634,-6.094,2.679,-1.506
-0.256,0.178,1.707,-5.763,2.547,-1.489
-0.277,0.187,1.775,-5.417,2.415,-1.459
-0.297,0.195,1.836,-5.060,2.282,-1.419
-0.320,0.202,1.892,-4.695,2.150,-1.369
-0.348,0.209,1.946,-4.326,2.016,-1.313
-0.374,0.223,1.992,-3.954,1.875,-1.254
-0.400,0.238,2.037,-3.583,1.728,-1.190
-0.424,0.247,2.073,-3.213,1.579,-1.123
-0.450,0.251,2.104,-2.846,1.426,-1.051
-0.476,0.249,2.133,-2.483,1.272,-0.976
-0.499,0.248,2.153,-2.124,1.115,-0.894
-0.524,0.248,2.167,-1.773,0.956,-0.806
-0.549,0.247,2.174,-1.428,0.784,-0.712
-0.570,0.247,2.179,-1.092,0.600,-0.614
-0.589,0.248,2.178,-0.767,0.402,-0.513
-0.604,0.249,2.169,-0.454,0.193,-0.410
-0.614,0.251,2.152,-0.154,-0.024,-0.306
-0.616,0.253,2.129,0.132,-0.242,-0.203
-0.546,0.264,1.943,1.287,-1.066,0.264
-0.521,0.265,1.896,1.498,-1.193,0.358
-0.495,0.262,1.843,1.699,-1.302,0.447
-0.464,0.258,1.790,1.891,-1.386,0.532
-0.432,0.256,1.737,2.074,-1.440,0.612
-0.398,0.257,1.686,2.251,-1.464,0.685
-0.365,0.259,1.635,2.419,-1.464,0.756
-0.337,0.261,1.587,2.576,-1.445,0.818
-0.319,0.263,1.554,2.678,-1.424,0.858
-0.294,0.270,1.505,2.820,-1.388,0.910
-0.269,0.275,1.459,2.952,-1.345,0.957
-0.245,0.283,1.414,3.072,-1.296,0.997
-0.223,0.293,1.370,3.183,-1.244,1.032
-0.203,0.304,1.328,3.285,-1.192,1.061
-0.187,0.314,1.288,3.378,-1.141,1.083
-0.171,0.322,1.249,3.460,-1.096,1.100
-0.161,0.331,1.213,3.533,-1.060,1.113
-0.151,0.340,1.178,3.597,-1.035,1.122
-0.143,0.351,1.144,3.653,-1.023,1.126
-0.136,0.361,1.110,3.704,-1.023,1.126
-0.128,0.373,1.075,3.746,-1.034,1.122
-0.119,0.384,1.044,3.784,-1.056,1.116
-0.110,0.395,1.013,3.818,-1.084,1.108
-0.071,0.429,0.873,3.948,-1.222,1.062
-0.062,0.437,0.839,3.976,-1.248,1.053
-0.051,0.445,0.807,4.003,-1.273,1.043
-0.040,0.452,0.776,4.029,-1.290,1.034
-0.028,0.458,0.745,4.055,-1.299,1.024
-0.017,0.466,0.715,4.079,-1.303,1.013
-0.008,0.475,0.686,4.103,-1.302,1.001
0.002,0.483,0.659,4.123,-1.293,0.988
0.013,0.491,0.634,4.139,-1.278,0.972
0.023,0.501,0.611,4.150,-1.256,0.954
0.033,0.512,0.589,4.156,-1.229,0.933
0.041,0.526,0.566,4.157,-1.195,0.910
0.050,0.542,0.546,4.152,-1.159,0.884
0.059,0.558,0.525,4.140,-1.122,0.857
0.067,0.576,0.507,4.123,-1.082,0.827
0.075,0.592,0.488,4.097,-1.040,0.794
0.081,0.606,0.472,4.065,-0.996,0.761
0.088,0.622,0.454,4.028,-0.952,0.726
0.093,0.635,0.435,3.986,-0.906,0.691
0.098,0.649,0.418,3.938,-0.858,0.654
0.101,0.667,0.403,3.883,-0.810,0.618
0.111,0.693,0.388,3.828,-0.757,0.579
0.118,0.706,0.370,3.776,-0.680,0.537
0.112,0.711,0.362,3.725,-0.617,0.498
0.100,0.717,0.354,3.666,-0.571,0.458
0.092,0.722,0.347,3.601,-0.536,0.416
0.083,0.769,0.315,3.268,-0.474,0.284
0.081,0.783,0.306,3.187,-0.468,0.262
0.082,0.795,0.300,3.106,-0.461,0.243
0.083,0.805,0.292,3.028,-0.453,0.227
0.085,0.809,0.287,2.951,-0.441,0.216
0.088,0.812,0.283,2.878,-0.418,0.211
0.091,0.813,0.276,2.807,-0.386,0.210
0.094,0.815,0.274,2.743,-0.345,0.214
0.098,0.819,0.268,2.680,-0.298,0.223
0.103,0.825,0.263,2.622,-0.251,0.237
0.106,0.829,0.260,2.566,-0.205,0.253
0.109,0.835,0.257,2.512,-0.165,0.269

0.007,0.087,1.886,-6.346,3.857,-0.686
-0.032,0.091,1.974,-5.948,3.763,-0.750
-0.070,0.097,2.054,-5.532,3.623,-0.805
-0.107,0.110,2.131,-5.101,3.443,-0.848
-0.144,0.125,2.201,-4.660,3.227,-0.881
-0.180,0.138,2.264,-4.212,2.979,-0.904
-0.218,0.151,2.319,-3.761,2.697,-0.913
-0.257,0.166,2.366,-3.310,2.381,-0.913
-0.292,0.178,2.405,-2.862,2.040,-0.902
-0.321,0.188,2.433,-2.421,1.692,-0.883
-0.347,0.196,2.450,-1.987,1.345,-0.857
-0.369,0.206,2.456,-1.563,1.008,-0.821
-0.386,0.216,2.452,-1.150,0.686,-0.775
-0.401,0.227,2.437,-0.750,0.384,-0.722
-0.411,0.237,2.415,-0.366,0.102,-0.660
-0.416,0.249,2.387,0.000,-0.161,-0.591
-0.416,0.259,2.349,0.350,-0.402,-0.513
-0.411,0.267,2.301,0.682,-0.618,-0.428
-0.400,0.274,2.249,0.997,-0.803,-0.338
-0.331,0.289,1.989,2.184,-1.271,0.067
-0.313,0.288,1.925,2.415,-1.313,0.159
-0.297,0.289,1.861,2.632,-1.341,0.246
-0.278,0.291,1.798,2.835,-1.360,0.328
-0.260,0.290,1.736,3.025,-1.370,0.405
-0.244,0.290,1.673,3.199,-1.371,0.479
-0.228,0.290,1.609,3.362,-1.368,0.547
-0.214,0.295,1.550,3.512,-1.363,0.608
-0.201,0.301,1.490,3.649,-1.364,0.661
-0.185,0.307,1.435,3.775,-1.369,0.707
-0.167,0.314,1.381,3.888,-1.373,0.747
-0.151,0.322,1.327,3.988,-1.373,0.781
-0.134,0.330,1.276,4.078,-1.373,0.811
-0.117,0.340,1.227,4.158,-1.373,0.835
-0.101,0.351,1.177,4.227,-1.375,0.854
-0.085,0.363,1.132,4.288,-1.386,0.867
-0.072,0.377,1.086,4.342,-1.403,0.877
-0.057,0.390,1.041,4.390,-1.429,0.880
-0.044,0.401,0.997,4.432,-1.459,0.877
-0.031,0.410,0.952,4.469,-1.490,0.869
-0.017,0.418,0.911,4.501,-1.522,0.857
-0.003,0.428,0.871,4.527,-1.553,0.842
0.011,0.440,0.831,4.550,-1.575,0.824
0.060,0.496,0.679,4.596,-1.575,0.716
0.073,0.509,0.649,4.593,-1.547,0.687
0.086,0.524,0.617,4.586,-1.506,0.660
0.096,0.541,0.588,4.575,-1.455,0.633
0.103,0.558,0.559,4.562,-1.397,0.607
0.110,0.570,0.533,4.546,-1.335,0.581
0.114,0.581,0.509,4.527,-1.267,0.557
0.118,0.590,0.485,4.504,-1.202,0.533
0.120,0.598,0.463,4.478,-1.139,0.512
0.121,0.607,0.442,4.450,-1.079,0.491
0.121,0.617,0.420,4.418,-1.027,0.471
0.120,0.629,0.399,4.385,-0.980,0.450
0.118,0.638,0.379,4.347,-0.941,0.429
0.115,0.645,0.361,4.308,-0.909,0.405
0.112,0.654,0.343,4.264,-0.883,0.382
0.109,0.664,0.325,4.216,-0.865,0.358
0.109,0.674,0.306,4.166,-0.852,0.333
0.120,0.697,0.292,4.112,-0.839,0.309
0.129,0.708,0.271,4.065,-0.802,0.281
0.125,0.712,0.255,4.023,-0.768,0.253
0.121,0.715,0.246,3.977,-0.738,0.223
0.118,0.719,0.237,3.927,-0.706,0.194
0.115,0.727,0.228,3.874,-0.677,0.164
0.114,0.737,0.221,3.817,-0.653,0.135
0.115,0.750,0.212,3.758,-0.634,0.110
0.115,0.763,0.203,3.697,-0.616,0.087
0.116,0.772,0.197,3.657,-0.603,0.073
0.120,0.784,0.186,3.597,-0.582,0.054
0.137,0.819,0.158,3.314,-0.427,0.021
0.140,0.824,0.152,3.255,-0.388,0.023
0.143,0.829,0.147,3.199,-0.351,0.029
0.146,0.831,0.143,3.142,-0.314,0.034
0.150,0.834,0.137,3.084,-0.275,0.040
0.155,0.838,0.130,3.029,-0.233,0.048
0.159,0.844,0.123,2.976,-0.194,0.054
0.162,0.848,0.118,2.940,-0.170,0.059
0.166,0.853,0.113,2.888,-0.138,0.063
0.170,0.858,0.107,2.835,-0.110,0.068

-0.075,0.220,1.734,-5.451,2.698,-1.023
-0.110,0.227,1.803,-5.150,2.608,-1.049
-0.145,0.231,1.869,-4.837,2.486,-1.067
-0.174,0.234,1.931,-4.511,2.338,-1.076
-0.203,0.239,1.986,-4.177,2.172,-1.075
-0.232,0.244,2.036,-3.832,1.991,-1.061
-0.259,0.248,2.079,-3.478,1.800,-1.035
-0.285,0.254,2.117,-3.116,1.602,-0.999
-0.309,0.259,2.151,-2.754,1.397,-0.951
-0.334,0.268,2.178,-2.387,1.191,-0.895
-0.355,0.280,2.196,-2.020,0.983,-0.831
-0.375,0.293,2.210,-1.658,0.778,-0.762
-0.393,0.307,2.216,-1.302,0.576,-0.686
-0.406,0.318,2.213,-0.952,0.376,-0.607
-0.416,0.328,2.205,-0.612,0.183,-0.520
-0.423,0.336,2.189,-0.282,-0.003,-0.429
-0.424,0.340,2.167,0.038,-0.178,-0.332
-0.422,0.342,2.137,0.347,-0.336,-0.232
-0.418,0.345,2.098,0.644,-0.481,-0.131
-0.354,0.351,1.878,1.872,-0.961,0.319
-0.335,0.348,1.826,2.099,-1.013,0.411
-0.316,0.346,1.772,2.310,-1.050,0.498
-0.295,0.343,1.716,2.509,-1.075,0.581
-0.275,0.342,1.662,2.695,-1.091,0.656
-0.256,0.342,1.609,2.865,-1.104,0.725
-0.236,0.342,1.555,3.023,-1.112,0.785
-0.219,0.344,1.500,3.169,-1.120,0.840
-0.202,0.346,1.448,3.302,-1.130,0.888
-0.187,0.350,1.397,3.423,-1.146,0.928
-0.172,0.356,1.348,3.532,-1.170,0.963
-0.154,0.362,1.298,3.632,-1.196,0.990
-0.137,0.369,1.249,3.724,-1.226,1.010
-0.119,0.375,1.201,3.808,-1.256,1.025
-0.102,0.383,1.155,3.883,-1.287,1.034
-0.085,0.392,1.110,3.953,-1.316,1.038
-0.069,0.399,1.065,4.013,-1.345,1.035
-0.053,0.406,1.023,4.070,-1.372,1.029
-0.039,0.415,0.981,4.119,-1.396,1.017
-0.025,0.424,0.943,4.162,-1.419,1.000
-0.011,0.435,0.905,4.199,-1.438,0.982
0.005,0.448,0.871,4.230,-1.453,0.959
0.018,0.458,0.836,4.255,-1.459,0.934
0.030,0.470,0.802,4.272,-1.459,0.909
0.070,0.524,0.671,4.278,-1.374,0.782
0.076,0.539,0.644,4.265,-1.344,0.753
0.084,0.555,0.618,4.251,-1.312,0.725
0.094,0.569,0.593,4.233,-1.275,0.697
0.105,0.583,0.566,4.215,-1.226,0.672
0.112,0.594,0.541,4.197,-1.166,0.647
0.116,0.604,0.519,4.180,-1.104,0.625
0.122,0.614,0.497,4.162,-1.040,0.603
0.124,0.620,0.484,4.149,-0.996,0.590
0.127,0.627,0.463,4.131,-0.930,0.570
0.131,0.635,0.446,4.111,-0.863,0.550
0.134,0.644,0.428,4.091,-0.795,0.534
0.135,0.653,0.409,4.069,-0.727,0.518
0.136,0.662,0.393,4.044,-0.662,0.503
0.134,0.673,0.377,4.019,-0.601,0.487
0.132,0.686,0.362,3.991,-0.549,0.470
0.129,0.698,0.350,3.960,-0.504,0.452
0.129,0.720,0.337,3.926,-0.467,0.434
0.136,0.732,0.317,3.895,-0.415,0.412
0.129,0.734,0.307,3.867,-0.365,0.391
0.118,0.734,0.299,3.834,-0.335,0.369
0.110,0.735,0.291,3.794,-0.318,0.347
0.106,0.737,0.283,3.746,-0.315,0.327
0.106,0.744,0.271,3.695,-0.321,0.309
0.110,0.753,0.261,3.638,-0.331,0.295
0.115,0.763,0.251,3.578,-0.339,0.282
0.121,0.773,0.240,3.515,-0.344,0.271
0.128,0.782,0.231,3.450,-0.341,0.264
0.159,0.830,0.195,3.154,-0.253,0.254
0.165,0.837,0.188,3.085,-0.220,0.259
0.172,0.841,0.184,3.017,-0.185,0.264
0.177,0.846,0.178,2.951,-0.150,0.272
0.182,0.855,0.173,2.887,-0.120,0.283
0.190,0.864,0.169,2.824,-0.092,0.294
0.197,0.872,0.165,2.766,-0.062,0.303
0.205,0.877,0.162,2.712,-0.030,0.314
0.214,0.881,0.159,2.662,0.003,0.322

-0.054,0.356,1.564,-5.422,1.925,-1.105
-0.074,0.364,1.614,-5.170,1.876,-1.095
-0.093,0.373,1.663,-4.903,1.820,-1.072
-0.114,0.381,1.711,-4.623,1.753,-1.037
-0.135,0.390,1.754,-4.335,1.674,-0.991
-0.157,0.396,1.795,-4.037,1.578,-0.938
-0.181,0.397,1.834,-3.731,1.467,-0.877
-0.202,0.398,1.871,-3.421,1.345,-0.812
-0.221,0.397,1.901,-3.111,1.221,-0.746
-0.238,0.397,1.926,-2.798,1.095,-0.678
-0.254,0.398,1.946,-2.489,0.972,-0.610
-0.265,0.400,1.962,-2.184,0.850,-0.541
-0.275,0.403,1.975,-1.882,0.731,-0.469
-0.283,0.407,1.985,-1.586,0.615,-0.396
-0.290,0.413,1.991,-1.295,0.499,-0.320
-0.294,0.418,1.990,-1.011,0.383,-0.244
-0.295,0.422,1.986,-0.733,0.268,-0.166
-0.294,0.425,1.980,-0.463,0.158,-0.088
-0.292,0.430,1.968,-0.199,0.050,-0.010
-0.261,0.436,1.869,0.863,-0.376,0.306
-0.248,0.434,1.836,1.089,-0.457,0.374
-0.237,0.430,1.802,1.308,-0.530,0.437
-0.224,0.425,1.765,1.520,-0.595,0.498
-0.212,0.418,1.725,1.724,-0.652,0.554
-0.199,0.411,1.685,1.922,-0.701,0.606
-0.186,0.405,1.643,2.112,-0.747,0.652
-0.174,0.402,1.603,2.293,-0.794,0.695
-0.164,0.399,1.560,2.466,-0.843,0.731
-0.153,0.398,1.516,2.627,-0.899,0.763
-0.141,0.397,1.473,2.778,-0.959,0.789
-0.129,0.398,1.428,2.918,-1.023,0.810
-0.115,0.399,1.381,3.048,-1.086,0.827
-0.100,0.401,1.333,3.167,-1.144,0.838
-0.083,0.405,1.286,3.276,-1.192,0.845
-0.065,0.412,1.238,3.375,-1.227,0.848
-0.047,0.422,1.190,3.464,-1.248,0.848
-0.031,0.435,1.145,3.546,-1.255,0.846
-0.013,0.448,1.101,3.619,-1.250,0.842
0.002,0.460,1.060,3.686,-1.238,0.835
0.016,0.472,1.022,3.746,-1.220,0.830
0.029,0.482,0.983,3.799,-1.196,0.824
0.041,0.492,0.946,3.847,-1.169,0.817
0.052,0.500,0.911,3.889,-1.137,0.812
0.080,0.528,0.773,4.019,-0.981,0.770
0.084,0.539,0.745,4.037,-0.958,0.753
0.088,0.547,0.718,4.050,-0.945,0.734
0.090,0.556,0.690,4.060,-0.943,0.714
0.093,0.564,0.664,4.064,-0.948,0.693
0.096,0.572,0.640,4.063,-0.957,0.670
0.099,0.580,0.614,4.060,-0.967,0.646
0.102,0.588,0.589,4.053,-0.978,0.622
0.106,0.601,0.563,4.042,-0.989,0.596
0.111,0.615,0.541,4.030,-0.998,0.570
0.117,0.627,0.519,4.016,-1.006,0.544
0.123,0.639,0.498,4.001,-1.006,0.517
0.132,0.650,0.478,3.987,-0.995,0.493
0.139,0.658,0.458,3.970,-0.974,0.469
0.145,0.666,0.435,3.954,-0.945,0.448
0.150,0.674,0.416,3.938,-0.908,0.427
0.165,0.693,0.399,3.923,-0.856,0.405
0.177,0.697,0.376,3.917,-0.773,0.382
0.174,0.697,0.365,3.917,-0.699,0.360
0.168,0.696,0.356,3.912,-0.635,0.337
0.163,0.695,0.346,3.899,-0.578,0.313
0.160,0.696,0.338,3.883,-0.530,0.291
0.158,0.700,0.330,3.863,-0.498,0.269
0.156,0.709,0.319,3.839,-0.481,0.248
0.155,0.720,0.309,3.808,-0.476,0.228
0.157,0.733,0.299,3.775,-0.478,0.205
0.159,0.746,0.292,3.735,-0.484,0.184
0.161,0.759,0.281,3.692,-0.494,0.162
0.175,0.803,0.228,3.470,-0.530,0.064
0.180,0.811,0.214,3.416,-0.532,0.043
0.185,0.819,0.200,3.363,-0.528,0.023
0.188,0.826,0.185,3.310,-0.519,0.003
0.189,0.831,0.175,3.257,-0.506,-0.015
0.193,0.837,0.162,3.203,-0.483,-0.033
0.197,0.845,0.147,3.151,-0.458,-0.047
0.198,0.851,0.137,3.098,-0.430,-0.060
0.199,0.857,0.129,3.044,-0.400,-0.070

-0.158,0.193,1.637,-6.895,2.387,-1.124
-0.181,0.197,1.729,-6.559,2.353,-1.092
-0.202,0.204,1.815,-6.208,2.299,-1.056
-0.221,0.209,1.893,-5.843,2.230,-1.016
-0.240,0.210,1.964,-5.467,2.153,-0.975
-0.259,0.210,2.030,-5.084,2.073,-0.933
-0.281,0.211,2.088,-4.694,1.985,-0.892
-0.304,0.210,2.139,-4.299,1.883,-0.849
-0.328,0.212,2.185,-3.904,1.762,-0.803
-0.352,0.216,2.226,-3.509,1.626,-0.756
-0.374,0.222,2.260,-3.115,1.473,-0.705
-0.392,0.230,2.284,-2.723,1.306,-0.651
-0.409,0.235,2.302,-2.340,1.131,-0.595
-0.421,0.242,2.313,-1.961,0.952,-0.533
-0.429,0.249,2.316,-1.589,0.775,-0.465
-0.437,0.255,2.309,-1.224,0.601,-0.392
-0.443,0.260,2.297,-0.868,0.433,-0.312
-0.443,0.269,2.282,-0.525,0.274,-0.228
-0.442,0.281,2.260,-0.197,0.113,-0.142
-0.411,0.290,2.095,1.055,-0.678,0.226
-0.392,0.282,2.042,1.308,-0.843,0.301
-0.371,0.273,1.982,1.552,-0.982,0.370
-0.349,0.264,1.922,1.784,-1.097,0.434
-0.325,0.256,1.857,2.005,-1.186,0.493
-0.301,0.251,1.793,2.215,-1.253,0.545
-0.278,0.252,1.729,2.413,-1.308,0.590
-0.257,0.254,1.665,2.598,-1.355,0.629
-0.235,0.259,1.602,2.768,-1.393,0.664
-0.213,0.263,1.540,2.926,-1.424,0.693
-0.192,0.272,1.478,3.069,-1.443,0.717
-0.170,0.280,1.416,3.200,-1.452,0.738
-0.150,0.291,1.354,3.317,-1.451,0.752
-0.132,0.301,1.294,3.423,-1.441,0.764
-0.114,0.314,1.238,3.515,-1.424,0.772
-0.099,0.328,1.187,3.596,-1.402,0.776
-0.085,0.342,1.137,3.665,-1.373,0.778
-0.072,0.358,1.088,3.724,-1.339,0.778
-0.060,0.377,1.043,3.773,-1.299,0.777
-0.048,0.396,1.002,3.813,-1.260,0.774
-0.036,0.415,0.967,3.844,-1.220,0.772
-0.024,0.431,0.931,3.868,-1.177,0.768
-0.016,0.445,0.899,3.885,-1.136,0.768
-0.001,0.487,0.774,3.905,-0.992,0.761
0.001,0.498,0.747,3.899,-0.976,0.756
0.005,0.507,0.723,3.892,-0.963,0.749
0.011,0.519,0.701,3.881,-0.950,0.743
0.016,0.529,0.677,3.870,-0.937,0.735
0.021,0.542,0.653,3.859,-0.922,0.727
0.026,0.555,0.631,3.847,-0.905,0.717
0.033,0.566,0.612,3.835,-0.884,0.708
0.041,0.577,0.593,3.824,-0.859,0.699
0.047,0.586,0.575,3.812,-0.827,0.692
0.051,0.594,0.559,3.798,-0.794,0.684
0.054,0.599,0.544,3.783,-0.760,0.677
0.056,0.606,0.529,3.766,-0.730,0.669
0.056,0.615,0.517,3.746,-0.705,0.661
0.058,0.621,0.504,3.724,-0.682,0.651
0.062,0.629,0.490,3.697,-0.660,0.641
0.066,0.634,0.476,3.667,-0.639,0.628
0.069,0.642,0.461,3.636,-0.618,0.615
0.075,0.649,0.446,3.603,-0.598,0.602
0.080,0.657,0.431,3.567,-0.582,0.590
0.086,0.667,0.419,3.528,-0.568,0.575
0.093,0.675,0.406,3.485,-0.554,0.559
0.103,0.690,0.396,3.442,-0.540,0.542
0.120,0.704,0.382,3.399,-0.507,0.520
0.128,0.712,0.370,3.363,-0.460,0.498
0.131,0.718,0.362,3.326,-0.419,0.474
0.133,0.722,0.356,3.284,-0.376,0.447
0.133,0.727,0.350,3.240,-0.336,0.419
0.128,0.767,0.329,3.023,-0.275,0.298
0.131,0.780,0.323,2.969,-0.278,0.270
0.134,0.792,0.318,2.916,-0.281,0.247
0.137,0.803,0.314,2.864,-0.282,0.225
0.140,0.811,0.310,2.814,-0.275,0.205
0.143,0.815,0.304,2.766,-0.260,0.188
0.145,0.818,0.299,2.719,-0.241,0.176
0.144,0.822,0.295,2.675,-0.218,0.165
0.145,0.825,0.292,2.633,-0.198,0.159
0.145,0.830,0.289,2.592,-0.180,0.158

-0.027,0.156,1.860,-6.410,2.469,-1.073
-0.060,0.164,1.942,-6.046,2.401,-1.126
-0.094,0.170,2.019,-5.662,2.302,-1.169
-0.128,0.175,2.086,-5.260,2.173,-1.197
-0.163,0.179,2.145,-4.845,2.019,-1.210
-0.197,0.184,2.196,-4.419,1.842,-1.207
-0.230,0.190,2.240,-3.986,1.651,-1.188
-0.261,0.195,2.272,-3.550,1.445,-1.154
-0.288,0.200,2.297,-3.118,1.235,-1.104
-0.311,0.206,2.316,-2.692,1.026,-1.042
-0.329,0.217,2.328,-2.282,0.824,-0.971
-0.344,0.227,2.334,-1.883,0.629,-0.891
-0.358,0.235,2.332,-1.499,0.446,-0.806
-0.373,0.241,2.326,-1.138,0.267,-0.718
-0.386,0.246,2.310,-0.797,0.092,-0.632
-0.397,0.247,2.289,-0.479,-0.084,-0.545
-0.404,0.246,2.260,-0.180,-0.258,-0.461
-0.405,0.246,2.225,0.100,-0.424,-0.377
-0.400,0.244,2.183,0.364,-0.576,-0.293
-0.339,0.244,1.962,1.372,-1.064,0.060
-0.315,0.248,1.908,1.574,-1.133,0.138
-0.294,0.254,1.854,1.766,-1.183,0.213
-0.274,0.259,1.801,1.945,-1.219,0.283
-0.253,0.264,1.748,2.110,-1.244,0.350
-0.233,0.270,1.694,2.265,-1.259,0.413
-0.210,0.274,1.639,2.405,-1.266,0.469
-0.187,0.278,1.588,2.535,-1.264,0.523
-0.164,0.282,1.538,2.653,-1.248,0.570
-0.144,0.286,1.487,2.762,-1.224,0.613
-0.125,0.292,1.438,2.860,-1.193,0.651
-0.108,0.302,1.391,2.949,-1.161,0.685
-0.095,0.313,1.347,3.028,-1.132,0.715
-0.081,0.326,1.303,3.097,-1.109,0.739
-0.067,0.339,1.262,3.160,-1.091,0.759
-0.055,0.352,1.222,3.215,-1.080,0.775
-0.043,0.363,1.184,3.264,-1.075,0.789
-0.031,0.374,1.148,3.308,-1.071,0.799
-0.020,0.382,1.113,3.347,-1.066,0.807
-0.009,0.390,1.077,3.381,-1.059,0.813
0.001,0.398,1.045,3.411,-1.051,0.816
0.010,0.408,1.013,3.436,-1.044,0.818
0.021,0.419,0.983,3.457,-1.038,0.818
0.063,0.459,0.862,3.496,-0.990,0.799
0.070,0.469,0.835,3.496,-0.968,0.793
0.076,0.480,0.809,3.496,-0.946,0.785
0.080,0.493,0.784,3.496,-0.925,0.777
0.087,0.505,0.760,3.496,-0.906,0.765
0.092,0.514,0.736,3.497,-0.885,0.753
0.096,0.520,0.716,3.497,-0.863,0.743
0.101,0.522,0.697,3.497,-0.840,0.733
0.103,0.522,0.678,3.499,-0.815,0.725
0.107,0.524,0.661,3.499,-0.791,0.719
0.112,0.531,0.642,3.500,-0.768,0.713
0.120,0.538,0.626,3.500,-0.746,0.708
0.128,0.549,0.608,3.499,-0.723,0.703
0.137,0.563,0.595,3.495,-0.697,0.700
0.146,0.578,0.581,3.490,-0.667,0.694
0.155,0.588,0.569,3.484,-0.636,0.687
0.164,0.598,0.556,3.476,-0.600,0.679
0.173,0.604,0.543,3.466,-0.560,0.672
0.181,0.606,0.531,3.456,-0.517,0.662
0.185,0.609,0.518,3.444,-0.475,0.651
0.187,0.613,0.507,3.430,-0.436,0.639
0.188,0.620,0.495,3.414,-0.405,0.623
0.188,0.628,0.486,3.395,-0.383,0.603
0.187,0.636,0.475,3.373,-0.369,0.581
0.184,0.643,0.467,3.347,-0.363,0.554
0.182,0.649,0.459,3.318,-0.366,0.527
0.182,0.654,0.451,3.287,-0.375,0.497
0.180,0.660,0.445,3.254,-0.387,0.467
0.197,0.718,0.407,3.133,-0.398,0.330
0.191,0.718,0.404,3.112,-0.403,0.298
0.191,0.716,0.401,3.088,-0.412,0.267
0.195,0.716,0.397,3.064,-0.422,0.243
0.198,0.719,0.390,3.039,-0.436,0.225
0.202,0.725,0.382,3.015,-0.450,0.213
0.203,0.731,0.375,2.993,-0.465,0.204
0.204,0.740,0.366,2.971,-0.481,0.198
0.208,0.750,0.353,2.949,-0.494,0.192
0.215,0.758,0.345,2.927,-0.500,0.185

0.220,0.906,-0.873,-1.673,-1.153,0.461
0.242,0.914,-0.906,-1.955,-1.031,0.513
0.265,0.918,-0.934,-2.263,-0.889,0.565
0.285,0.916,-0.953,-2.592,-0.729,0.617
0.297,0.907,-0.964,-2.944,-0.560,0.664
0.302,0.889,-0.968,-3.310,-0.392,0.700
0.304,0.863,-0.963,-3.688,-0.227,0.726
0.307,0.832,-0.948,-4.076,-0.062,0.736
0.308,0.795,-0.924,-4.469,0.098,0.733
0.308,0.754,-0.891,-4.861,0.248,0.718
0.305,0.710,-0.853,-5.249,0.384,0.693
0.300,0.660,-0.810,-5.628,0.501,0.656
0.294,0.609,-0.760,-5.995,0.600,0.610
0.288,0.556,-0.708,-6.348,0.679,0.559
0.281,0.505,-0.655,-6.685,0.740,0.501
0.275,0.457,-0.594,-7.005,0.788,0.441
0.270,0.414,-0.531,-7.307,0.831,0.376
0.267,0.374,-0.465,-7.592,0.877,0.312
0.265,0.339,-0.396,-7.855,0.924,0.248
0.265,0.309,-0.325,-8.098,0.978,0.186
0.265,0.284,-0.250,-8.316,1.040,0.128
0.242,0.207,0.127,-9.001,1.361,-0.125
0.233,0.196,0.219,-9.095,1.431,-0.181
0.228,0.194,0.314,-9.160,1.497,-0.235
0.229,0.195,0.408,-9.196,1.567,-0.288
0.234,0.198,0.500,-9.198,1.648,-0.339
0.239,0.201,0.596,-9.164,1.747,-0.388
0.243,0.203,0.694,-9.095,1.866,-0.437
0.243,0.202,0.795,-8.991,2.003,-0.487
0.237,0.197,0.900,-8.852,2.149,-0.536
0.229,0.193,1.008,-8.686,2.290,-0.584
0.215,0.190,1.115,-8.490,2.422,-0.631
0.198,0.188,1.223,-8.265,2.537,-0.679
0.179,0.188,1.327,-8.013,2.627,-0.724
0.156,0.188,1.433,-7.734,2.687,-0.765
0.129,0.182,1.534,-7.430,2.725,-0.801
0.106,0.185,1.631,-7.105,2.744,-0.833
0.086,0.195,1.721,-6.756,2.741,-0.857
0.061,0.204,1.806,-6.384,2.719,-0.873
0.037,0.219,1.889,-5.994,2.678,-0.880
0.014,0.239,1.964,-5.586,2.615,-0.877
-0.013,0.256,2.037,-5.165,2.534,-0.864
-0.041,0.268,2.104,-4.733,2.436,-0.843
-0.070,0.278,2.165,-4.295,2.321,-0.812
-0.198,0.329,2.340,-2.410,1.642,-0.597
-0.224,0.337,2.358,-1.998,1.449,-0.529
-0.246,0.339,2.369,-1.594,1.244,-0.455
-0.264,0.342,2.373,-1.205,1.031,-0.376
-0.277,0.344,2.368,-0.829,0.814,-0.291
-0.284,0.350,2.356,-0.466,0.599,-0.200
-0.285,0.355,2.335,-0.119,0.385,-0.105
-0.279,0.362,2.306,0.215,0.180,-0.010
-0.270,0.368,2.269,0.534,-0.014,0.088
-0.259,0.370,2.227,0.842,-0.192,0.184
-0.243,0.367,2.183,1.133,-0.352,0.277
-0.225,0.362,2.133,1.410,-0.493,0.366
-0.206,0.354,2.080,1.672,-0.614,0.452
-0.185,0.348,2.025,1.919,-0.715,0.533
-0.165,0.343,1.969,2.150,-0.795,0.607
-0.143,0.343,1.911,2.365,-0.862,0.675
-0.119,0.344,1.853,2.564,-0.916,0.735
-0.095,0.346,1.796,2.749,-0.961,0.792
-0.072,0.350,1.741,2.920,-0.994,0.841
-0.049,0.355,1.684,3.078,-1.020,0.883
-0.023,0.359,1.627,3.224,-1.033,0.921
0.002,0.362,1.574,3.358,-1.038,0.952
0.085,0.390,1.361,3.822,-0.960,1.032
0.099,0.401,1.316,3.906,-0.944,1.038
0.109,0.410,1.273,3.984,-0.938,1.039
0.118,0.417,1.231,4.057,-0.938,1.034
0.128,0.420,1.188,4.127,-0.940,1.026
0.135,0.421,1.149,4.193,-0.941,1.012
0.142,0.423,1.110,4.257,-0.941,0.996
0.146,0.430,1.073,4.319,-0.939,0.977
0.152,0.440,1.036,4.377,-0.935,0.956
0.157,0.451,1.000,4.437,-0.931,0.931
0.163,0.461,0.965,4.496,-0.925,0.906
0.170,0.468,0.932,4.556,-0.919,0.879
0.175,0.474,0.899,4.618,-0.914,0.855
0.179,0.477,0.866,4.680,-0.912,0.830

0.207,0.844,-0.921,-2.388,-0.592,0.299
0.218,0.844,-0.954,-2.725,-0.584,0.343
0.231,0.846,-0.981,-3.088,-0.552,0.386
0.241,0.848,-1.002,-3.477,-0.494,0.427
0.247,0.842,-1.011,-3.885,-0.409,0.462
0.249,0.825,-1.010,-4.310,-0.298,0.490
0.244,0.797,-1.000,-4.745,-0.170,0.507
0.234,0.761,-0.980,-5.186,-0.032,0.513
0.224,0.718,-0.950,-5.622,0.112,0.507
0.211,0.670,-0.909,-6.051,0.258,0.488
0.200,0.621,-0.863,-6.465,0.407,0.459
0.190,0.569,-0.811,-6.860,0.559,0.418
0.180,0.518,-0.754,-7.230,0.716,0.369
0.172,0.465,-0.693,-7.571,0.880,0.313
0.167,0.430,-0.648,-7.778,0.992,0.271
0.161,0.379,-0.577,-8.064,1.169,0.208
0.159,0.334,-0.502,-8.315,1.352,0.142
0.162,0.297,-0.420,-8.532,1.538,0.077
0.166,0.269,-0.331,-8.717,1.725,0.015
0.168,0.246,-0.239,-8.870,1.903,-0.045
0.171,0.230,-0.143,-8.995,2.070,-0.102
0.190,0.191,0.328,-9.158,2.589,-0.339
0.200,0.189,0.425,-9.102,2.662,-0.386
0.205,0.181,0.523,-9.017,2.733,-0.432
0.208,0.179,0.623,-8.905,2.798,-0.477
0.207,0.180,0.723,-8.770,2.860,-0.525
0.201,0.180,0.825,-8.614,2.913,-0.577
0.194,0.188,0.931,-8.442,2.959,-0.634
0.190,0.205,1.032,-8.256,3.003,-0.696
0.180,0.217,1.134,-8.054,3.038,-0.761
0.160,0.219,1.234,-7.838,3.052,-0.828
0.135,0.214,1.331,-7.606,3.043,-0.896
0.110,0.206,1.422,-7.358,3.017,-0.963
0.088,0.205,1.506,-7.090,2.979,-1.028
0.069,0.218,1.589,-6.803,2.930,-1.087
0.056,0.231,1.643,-6.597,2.890,-1.123
0.034,0.250,1.719,-6.271,2.818,-1.170
0.009,0.263,1.794,-5.926,2.734,-1.208
-0.017,0.277,1.861,-5.562,2.637,-1.237
-0.046,0.292,1.924,-5.183,2.524,-1.255
-0.080,0.307,1.981,-4.794,2.390,-1.258
-0.114,0.322,2.036,-4.398,2.237,-1.248
-0.148,0.333,2.082,-3.999,2.069,-1.226
-0.272,0.393,2.184,-2.209,1.216,-0.943
-0.291,0.405,2.188,-1.857,1.042,-0.849
-0.309,0.415,2.185,-1.517,0.867,-0.746
-0.328,0.421,2.177,-1.189,0.695,-0.636
-0.342,0.422,2.164,-0.874,0.521,-0.518
-0.352,0.420,2.147,-0.573,0.348,-0.397
-0.358,0.420,2.126,-0.285,0.177,-0.271
-0.359,0.421,2.102,-0.009,0.011,-0.144
-0.353,0.421,2.073,0.255,-0.148,-0.020
-0.342,0.420,2.038,0.507,-0.295,0.102
-0.325,0.418,2.002,0.747,-0.427,0.220
-0.302,0.417,1.961,0.976,-0.540,0.331
-0.277,0.415,1.913,1.193,-0.633,0.438
-0.249,0.411,1.866,1.399,-0.706,0.538
-0.224,0.407,1.816,1.596,-0.761,0.632
-0.198,0.405,1.767,1.784,-0.800,0.717
-0.173,0.405,1.720,1.959,-0.827,0.792
-0.146,0.407,1.675,2.125,-0.842,0.859
-0.120,0.406,1.627,2.283,-0.843,0.917
-0.097,0.404,1.580,2.431,-0.834,0.971
-0.074,0.404,1.535,2.569,-0.821,1.016
0.009,0.422,1.346,3.088,-0.769,1.138
0.026,0.425,1.306,3.191,-0.767,1.151
0.040,0.427,1.267,3.287,-0.772,1.162
0.051,0.430,1.229,3.378,-0.782,1.169
0.061,0.435,1.190,3.463,-0.802,1.171
0.070,0.441,1.152,3.542,-0.829,1.167
0.082,0.446,1.116,3.615,-0.863,1.162
0.092,0.450,1.078,3.683,-0.902,1.153
0.100,0.457,1.040,3.745,-0.944,1.140
0.108,0.462,1.002,3.805,-0.989,1.124
0.117,0.469,0.968,3.860,-1.033,1.106
0.127,0.475,0.932,3.910,-1.078,1.086
0.137,0.482,0.900,3.956,-1.115,1.064
0.148,0.491,0.866,3.998,-1.147,1.042
0.160,0.502,0.835,4.037,-1.171,1.017
0.167,0.510,0.814,4.061,-1.180,1.000

-0.258,0.142,1.627,-5.962,4.037,-1.324
-0.300,0.144,1.698,-5.656,3.854,-1.320
-0.339,0.154,1.766,-5.341,3.634,-1.300
-0.375,0.170,1.831,-5.015,3.384,-1.267
-0.411,0.187,1.892,-4.679,3.105,-1.223
-0.442,0.207,1.949,-4.334,2.804,-1.166
-0.465,0.228,2.004,-3.978,2.493,-1.099
-0.485,0.249,2.052,-3.614,2.172,-1.021
-0.504,0.267,2.098,-3.241,1.847,-0.929
-0.518,0.278,2.134,-2.860,1.523,-0.829
-0.527,0.285,2.163,-2.474,1.210,-0.722
-0.531,0.291,2.182,-2.081,0.915,-0.609
-0.532,0.295,2.194,-1.686,0.641,-0.491
-0.530,0.295,2.196,-1.289,0.387,-0.369
-0.526,0.294,2.191,-0.896,0.156,-0.247
-0.519,0.291,2.179,-0.509,-0.050,-0.127
-0.510,0.288,2.159,-0.132,-0.234,-0.007
-0.498,0.287,2.132,0.231,-0.399,0.107
-0.485,0.286,2.097,0.577,-0.547,0.219
-0.416,0.286,1.898,1.856,-1.011,0.634
-0.399,0.286,1.843,2.097,-1.091,0.715
-0.386,0.287,1.788,2.316,-1.165,0.791
-0.370,0.288,1.735,2.516,-1.235,0.863
-0.351,0.291,1.683,2.697,-1.300,0.929
-0.332,0.295,1.630,2.861,-1.361,0.992
-0.311,0.301,1.578,3.005,-1.415,1.051
-0.291,0.309,1.525,3.135,-1.465,1.107
-0.271,0.318,1.474,3.254,-1.513,1.157
-0.250,0.329,1.425,3.361,-1.560,1.202
-0.226,0.340,1.381,3.459,-1.601,1.243
-0.201,0.348,1.337,3.548,-1.633,1.281
-0.176,0.356,1.293,3.628,-1.656,1.316
-0.151,0.363,1.250,3.702,-1.672,1.348
-0.126,0.370,1.207,3.772,-1.677,1.376
-0.103,0.377,1.168,3.834,-1.671,1.399
-0.082,0.386,1.128,3.892,-1.655,1.419
-0.062,0.396,1.093,3.944,-1.635,1.431
-0.042,0.405,1.057,3.992,-1.612,1.440
-0.026,0.415,1.021,4.033,-1.591,1.442
-0.010,0.421,0.986,4.071,-1.574,1.439
0.004,0.427,0.954,4.103,-1.561,1.431
0.016,0.434,0.924,4.132,-1.553,1.420
0.065,0.468,0.796,4.228,-1.544,1.323
0.077,0.477,0.768,4.247,-1.537,1.293
0.091,0.486,0.741,4.266,-1.521,1.260
0.104,0.494,0.716,4.285,-1.499,1.228
0.114,0.501,0.691,4.305,-1.475,1.195
0.125,0.507,0.666,4.323,-1.451,1.164
0.134,0.514,0.643,4.341,-1.429,1.132
0.140,0.519,0.622,4.356,-1.410,1.101
0.146,0.524,0.598,4.371,-1.398,1.071
0.151,0.532,0.578,4.381,-1.390,1.039
0.157,0.539,0.559,4.386,-1.383,1.007
0.161,0.548,0.542,4.385,-1.380,0.973
0.164,0.559,0.524,4.380,-1.377,0.938
0.167,0.571,0.505,4.369,-1.378,0.898
0.173,0.585,0.485,4.355,-1.379,0.859
0.177,0.599,0.465,4.338,-1.381,0.816
0.180,0.614,0.445,4.319,-1.383,0.775
0.183,0.628,0.426,4.301,-1.385,0.731
0.186,0.642,0.408,4.282,-1.386,0.687
0.191,0.654,0.392,4.264,-1.383,0.644
0.200,0.667,0.375,4.246,-1.374,0.602
0.219,0.688,0.363,4.229,-1.349,0.564
0.235,0.693,0.340,4.220,-1.285,0.525
0.237,0.693,0.328,4.220,-1.240,0.502
0.237,0.693,0.316,4.219,-1.175,0.471
0.235,0.692,0.308,4.213,-1.106,0.438
0.233,0.693,0.295,4.205,-1.038,0.408
0.230,0.697,0.285,4.192,-0.976,0.379
0.224,0.740,0.237,4.083,-0.815,0.274
0.224,0.749,0.223,4.050,-0.801,0.253
0.225,0.759,0.210,4.014,-0.794,0.232
0.225,0.764,0.198,3.975,-0.789,0.211
0.225,0.768,0.189,3.946,-0.785,0.196
0.228,0.776,0.176,3.899,-0.783,0.172
0.231,0.783,0.163,3.849,-0.783,0.147
0.233,0.792,0.151,3.795,-0.781,0.122
0.236,0.803,0.137,3.738,-0.777,0.096
0.241,0.817,0.122,3.680,-0.770,0.068

-0.185,0.081,1.796,-6.751,4.162,-1.112
-0.243,0.084,1.895,-6.354,3.961,-1.174
-0.298,0.094,1.988,-5.945,3.701,-1.221
-0.347,0.114,2.075,-5.523,3.396,-1.248
-0.387,0.139,2.151,-5.090,3.052,-1.258
-0.424,0.166,2.220,-4.645,2.687,-1.246
-0.457,0.193,2.278,-4.191,2.313,-1.213
-0.487,0.217,2.328,-3.728,1.935,-1.161
-0.509,0.241,2.369,-3.261,1.564,-1.090
-0.525,0.264,2.397,-2.793,1.210,-1.003
-0.536,0.283,2.414,-2.323,0.877,-0.898
-0.544,0.298,2.423,-1.859,0.567,-0.783
-0.550,0.310,2.420,-1.402,0.283,-0.657
-0.553,0.321,2.411,-0.955,0.023,-0.527
-0.550,0.330,2.394,-0.523,-0.214,-0.395
-0.540,0.337,2.369,-0.107,-0.427,-0.262
-0.526,0.341,2.337,0.287,-0.614,-0.131
-0.510,0.342,2.297,0.662,-0.780,-0.002
-0.494,0.335,2.247,1.016,-0.927,0.126
-0.405,0.291,2.001,2.347,-1.287,0.607
-0.383,0.287,1.943,2.608,-1.313,0.697
-0.360,0.285,1.885,2.853,-1.329,0.781
-0.337,0.285,1.827,3.080,-1.339,0.861
-0.315,0.286,1.768,3.291,-1.346,0.934
-0.292,0.287,1.709,3.483,-1.348,1.005
-0.272,0.288,1.650,3.659,-1.347,1.068
-0.251,0.292,1.593,3.818,-1.348,1.127
-0.231,0.298,1.541,3.963,-1.351,1.180
-0.210,0.306,1.488,4.092,-1.355,1.228
-0.187,0.315,1.434,4.205,-1.357,1.270
-0.165,0.327,1.381,4.304,-1.360,1.305
-0.142,0.339,1.331,4.392,-1.364,1.337
-0.120,0.352,1.282,4.470,-1.368,1.360
-0.098,0.363,1.233,4.539,-1.374,1.379
-0.076,0.373,1.187,4.600,-1.383,1.394
-0.054,0.381,1.144,4.653,-1.394,1.405
-0.035,0.392,1.101,4.702,-1.408,1.412
-0.017,0.404,1.056,4.748,-1.425,1.413
0.002,0.413,1.014,4.790,-1.443,1.410
0.020,0.421,0.971,4.832,-1.460,1.403
0.038,0.427,0.932,4.872,-1.475,1.393
0.054,0.430,0.893,4.914,-1.491,1.379
0.070,0.432,0.853,4.954,-1.506,1.364
0.125,0.440,0.693,5.131,-1.554,1.255
0.137,0.444,0.660,5.168,-1.563,1.221
0.146,0.447,0.627,5.203,-1.572,1.183
0.153,0.452,0.595,5.235,-1.579,1.144
0.157,0.457,0.560,5.263,-1.589,1.103
0.163,0.464,0.527,5.286,-1.598,1.059
0.169,0.474,0.496,5.303,-1.610,1.013
0.175,0.488,0.465,5.316,-1.619,0.966
0.180,0.502,0.433,5.324,-1.622,0.917
0.190,0.526,0.404,5.330,-1.620,0.865
0.214,0.553,0.374,5.334,-1.590,0.810
0.225,0.560,0.341,5.350,-1.524,0.756
0.228,0.563,0.320,5.366,-1.463,0.703
0.226,0.565,0.298,5.375,-1.396,0.653
0.225,0.568,0.276,5.378,-1.331,0.607
0.224,0.575,0.254,5.375,-1.275,0.564
0.225,0.584,0.233,5.366,-1.227,0.524
0.227,0.596,0.210,5.350,-1.190,0.487
0.229,0.613,0.188,5.330,-1.162,0.453
0.232,0.630,0.164,5.303,-1.141,0.419
0.238,0.648,0.143,5.272,-1.123,0.388
0.242,0.662,0.120,5.237,-1.105,0.354
0.245,0.674,0.098,5.196,-1.087,0.318
0.247,0.684,0.080,5.150,-1.066,0.279
0.250,0.693,0.057,5.099,-1.043,0.237
0.254,0.702,0.037,5.043,-1.016,0.194
0.257,0.711,0.016,4.983,-0.988,0.148
0.261,0.723,-0.006,4.918,-0.959,0.102
0.269,0.782,-0.082,4.583,-0.855,-0.096
0.270,0.796,-0.098,4.494,-0.834,-0.142
0.270,0.810,-0.114,4.400,-0.812,-0.187
0.270,0.825,-0.128,4.303,-0.788,-0.233
0.267,0.840,-0.140,4.200,-0.765,-0.278
0.264,0.856,-0.154,4.092,-0.740,-0.322
0.261,0.873,-0.170,3.975,-0.711,-0.369
0.259,0.887,-0.184,3.854,-0.680,-0.416
0.256,0.897,-0.201,3.728,-0.647,-0.462

-0.166,0.262,1.639,-5.660,3.267,-1.352
-0.204,0.283,1.715,-5.338,3.094,-1.357
-0.242,0.301,1.791,-5.004,2.894,-1.348
-0.280,0.321,1.862,-4.656,2.668,-1.324
-0.314,0.339,1.930,-4.297,2.426,-1.286
-0.343,0.356,1.987,-3.928,2.181,-1.230
-0.369,0.372,2.038,-3.550,1.935,-1.157
-0.394,0.386,2.084,-3.165,1.693,-1.068
-0.418,0.397,2.122,-2.780,1.461,-0.968
-0.435,0.406,2.154,-2.387,1.242,-0.857
-0.451,0.414,2.175,-1.994,1.034,-0.735
-0.466,0.416,2.187,-1.605,0.836,-0.609
-0.477,0.419,2.192,-1.220,0.649,-0.478
-0.486,0.420,2.189,-0.844,0.470,-0.345
-0.491,0.422,2.177,-0.479,0.296,-0.211
-0.490,0.423,2.158,-0.126,0.128,-0.080
-0.483,0.426,2.131,0.212,-0.037,0.048
-0.472,0.427,2.100,0.535,-0.194,0.172
-0.455,0.423,2.061,0.844,-0.343,0.295
-0.436,0.413,2.016,1.138,-0.479,0.412
-0.327,0.379,1.796,2.239,-0.850,0.836
-0.301,0.377,1.741,2.450,-0.890,0.911
-0.276,0.377,1.689,2.642,-0.922,0.977
-0.252,0.377,1.635,2.817,-0.950,1.035
-0.230,0.377,1.581,2.977,-0.977,1.086
-0.210,0.379,1.527,3.122,-1.005,1.129
-0.190,0.383,1.478,3.252,-1.032,1.166
-0.171,0.386,1.428,3.368,-1.063,1.195
-0.151,0.388,1.382,3.474,-1.096,1.219
-0.132,0.392,1.335,3.566,-1.128,1.235
-0.113,0.399,1.291,3.648,-1.160,1.246
-0.095,0.405,1.244,3.722,-1.194,1.254
-0.077,0.413,1.200,3.788,-1.229,1.257
-0.061,0.423,1.157,3.847,-1.264,1.255
-0.042,0.433,1.115,3.903,-1.298,1.249
-0.022,0.443,1.076,3.951,-1.329,1.241
-0.002,0.452,1.035,3.998,-1.357,1.230
0.015,0.463,0.994,4.042,-1.379,1.217
0.032,0.474,0.956,4.082,-1.397,1.203
0.049,0.483,0.918,4.121,-1.408,1.187
0.065,0.492,0.882,4.158,-1.412,1.170
0.080,0.500,0.847,4.192,-1.411,1.150
0.094,0.506,0.812,4.224,-1.403,1.130
0.105,0.512,0.779,4.255,-1.389,1.109
0.132,0.526,0.643,4.357,-1.341,0.996
0.135,0.531,0.612,4.373,-1.351,0.962
0.141,0.534,0.580,4.386,-1.364,0.928
0.148,0.539,0.549,4.396,-1.381,0.891
0.155,0.543,0.519,4.404,-1.397,0.852
0.161,0.547,0.492,4.408,-1.409,0.812
0.166,0.553,0.462,4.411,-1.419,0.768
0.170,0.563,0.436,4.410,-1.425,0.725
0.176,0.576,0.412,4.407,-1.431,0.678
0.179,0.590,0.388,4.400,-1.436,0.629
0.188,0.613,0.365,4.387,-1.435,0.580
0.207,0.636,0.338,4.374,-1.410,0.527
0.214,0.649,0.314,4.367,-1.370,0.475
0.214,0.658,0.297,4.356,-1.339,0.424
0.214,0.662,0.280,4.339,-1.305,0.371
0.215,0.666,0.265,4.316,-1.269,0.322
0.218,0.671,0.248,4.287,-1.230,0.278
0.223,0.681,0.232,4.252,-1.192,0.237
0.227,0.695,0.214,4.213,-1.153,0.201
0.230,0.711,0.200,4.170,-1.112,0.167
0.231,0.729,0.184,4.120,-1.071,0.134
0.233,0.749,0.168,4.066,-1.029,0.101
0.234,0.767,0.155,4.007,-0.988,0.069
0.236,0.782,0.143,3.944,-0.944,0.038
0.236,0.796,0.130,3.875,-0.901,0.009
0.234,0.808,0.119,3.802,-0.860,-0.021
0.232,0.815,0.106,3.724,-0.822,-0.050
0.229,0.823,0.096,3.642,-0.786,-0.078
0.213,0.871,0.049,3.236,-0.696,-0.185
0.209,0.885,0.037,3.137,-0.683,-0.208
0.206,0.896,0.026,3.038,-0.670,-0.231
0.204,0.903,0.015,2.942,-0.653,-0.253
0.202,0.907,0.004,2.847,-0.632,-0.272
0.198,0.910,-0.006,2.754,-0.606,-0.289
0.195,0.912,-0.017,2.665,-0.575,-0.302
0.191,0.912,-0.025,2.576,-0.538,-0.314

-0.072,0.216,1.733,-6.045,3.109,-1.236
-0.105,0.229,1.812,-5.683,2.970,-1.253
-0.139,0.247,1.883,-5.309,2.811,-1.255
-0.173,0.269,1.948,-4.924,2.630,-1.242
-0.204,0.294,2.007,-4.528,2.430,-1.217
-0.238,0.318,2.060,-4.126,2.215,-1.180
-0.271,0.339,2.106,-3.721,1.984,-1.132
-0.300,0.354,2.146,-3.313,1.744,-1.075
-0.324,0.365,2.179,-2.904,1.503,-1.008
-0.346,0.375,2.204,-2.502,1.265,-0.931
-0.363,0.384,2.223,-2.103,1.040,-0.847
-0.377,0.395,2.236,-1.710,0.830,-0.756
-0.392,0.404,2.237,-1.324,0.636,-0.661
-0.400,0.410,2.234,-0.946,0.450,-0.562
-0.408,0.416,2.226,-0.577,0.276,-0.460
-0.416,0.421,2.210,-0.219,0.105,-0.357
-0.421,0.428,2.187,0.127,-0.063,-0.252
-0.420,0.435,2.159,0.459,-0.227,-0.148
-0.414,0.440,2.121,0.777,-0.382,-0.043
-0.349,0.421,1.918,2.010,-0.822,0.405
-0.334,0.419,1.865,2.258,-0.875,0.500
-0.318,0.420,1.813,2.489,-0.922,0.591
-0.302,0.420,1.759,2.703,-0.967,0.674
-0.284,0.419,1.706,2.903,-1.013,0.749
-0.262,0.418,1.650,3.088,-1.055,0.821
-0.240,0.416,1.593,3.260,-1.093,0.886
-0.218,0.413,1.537,3.418,-1.125,0.946
-0.195,0.411,1.482,3.566,-1.148,1.000
-0.171,0.414,1.427,3.704,-1.163,1.047
-0.148,0.418,1.371,3.831,-1.170,1.088
-0.125,0.422,1.317,3.947,-1.172,1.121
-0.103,0.428,1.265,4.054,-1.172,1.147
-0.083,0.433,1.215,4.150,-1.171,1.167
-0.065,0.438,1.166,4.238,-1.176,1.183
-0.047,0.443,1.117,4.315,-1.183,1.194
-0.034,0.451,1.071,4.384,-1.199,1.198
-0.023,0.462,1.026,4.442,-1.224,1.197
-0.012,0.475,0.985,4.495,-1.259,1.187
-0.000,0.488,0.945,4.540,-1.303,1.169
0.013,0.499,0.907,4.580,-1.351,1.146
0.026,0.508,0.870,4.616,-1.401,1.120
0.037,0.515,0.832,4.646,-1.448,1.091
0.090,0.539,0.681,4.740,-1.586,0.951
0.102,0.547,0.645,4.755,-1.586,0.921
0.116,0.556,0.612,4.769,-1.570,0.892
0.128,0.566,0.581,4.782,-1.543,0.863
0.136,0.576,0.550,4.794,-1.504,0.834
0.146,0.588,0.522,4.805,-1.455,0.807
0.165,0.610,0.499,4.816,-1.393,0.779
0.179,0.619,0.472,4.832,-1.305,0.751
0.182,0.620,0.456,4.844,-1.250,0.733
0.181,0.619,0.435,4.864,-1.172,0.708
0.181,0.617,0.412,4.881,-1.089,0.679
0.183,0.615,0.391,4.897,-1.008,0.650
0.182,0.616,0.371,4.911,-0.932,0.624
0.181,0.621,0.350,4.925,-0.867,0.597
0.180,0.629,0.329,4.938,-0.815,0.570
0.180,0.638,0.310,4.947,-0.776,0.545
0.181,0.643,0.294,4.953,-0.748,0.518
0.182,0.647,0.275,4.955,-0.730,0.494
0.183,0.650,0.253,4.955,-0.720,0.468
0.184,0.653,0.235,4.952,-0.716,0.443
0.187,0.655,0.216,4.944,-0.714,0.416
0.189,0.659,0.197,4.934,-0.714,0.390
0.189,0.664,0.177,4.918,-0.717,0.361
0.192,0.674,0.161,4.899,-0.726,0.331
0.195,0.684,0.144,4.876,-0.736,0.300
0.199,0.694,0.125,4.849,-0.749,0.267
0.203,0.704,0.110,4.816,-0.760,0.231
0.208,0.717,0.094,4.778,-0.765,0.194
0.235,0.765,0.022,4.583,-0.720,0.033
0.238,0.775,0.003,4.534,-0.691,-0.003
0.239,0.785,-0.015,4.484,-0.663,-0.039
0.240,0.796,-0.030,4.430,-0.635,-0.076
0.242,0.805,-0.044,4.375,-0.608,-0.111
0.244,0.815,-0.058,4.315,-0.576,-0.144
0.246,0.824,-0.071,4.254,-0.544,-0.175
0.247,0.833,-0.087,4.188,-0.516,-0.203
0.245,0.842,-0.102,4.120,-0.490,-0.230
0.245,0.850,-0.116,4.049,-0.466,-0.255

-0.073,0.262,1.751,-6.519,3.030,-0.619
-0.103,0.270,1.837,-6.146,2.849,-0.637
-0.131,0.277,1.914,-5.759,2.645,-0.648
-0.156,0.279,1.984,-5.358,2.425,-0.649
-0.179,0.284,2.050,-4.948,2.197,-0.641
-0.201,0.290,2.107,-4.527,1.963,-0.623
-0.222,0.299,2.155,-4.102,1.729,-0.596
-0.240,0.312,2.197,-3.673,1.493,-0.563
-0.253,0.324,2.230,-3.240,1.258,-0.521
-0.264,0.334,2.255,-2.806,1.028,-0.471
-0.275,0.341,2.269,-2.385,0.808,-0.413
-0.281,0.350,2.277,-1.969,0.596,-0.347
-0.285,0.359,2.277,-1.564,0.401,-0.277
-0.285,0.368,2.269,-1.174,0.226,-0.201
-0.285,0.375,2.254,-0.800,0.071,-0.122
-0.284,0.383,2.233,-0.445,-0.064,-0.042
-0.282,0.390,2.209,-0.111,-0.188,0.040
-0.279,0.395,2.178,0.204,-0.304,0.122
-0.272,0.398,2.144,0.498,-0.410,0.208
-0.220,0.387,1.947,1.569,-0.722,0.563
-0.203,0.381,1.900,1.777,-0.756,0.639
-0.185,0.379,1.852,1.973,-0.777,0.712
-0.168,0.380,1.803,2.155,-0.789,0.782
-0.150,0.385,1.754,2.326,-0.796,0.846
-0.131,0.390,1.705,2.487,-0.800,0.906
-0.112,0.395,1.658,2.637,-0.802,0.961
-0.094,0.399,1.609,2.780,-0.799,1.013
-0.077,0.404,1.562,2.917,-0.794,1.061
-0.062,0.409,1.514,3.048,-0.785,1.104
-0.050,0.415,1.470,3.175,-0.779,1.140
-0.039,0.421,1.425,3.296,-0.777,1.170
-0.029,0.426,1.380,3.413,-0.782,1.196
-0.021,0.430,1.337,3.524,-0.793,1.219
-0.013,0.437,1.295,3.630,-0.815,1.237
-0.006,0.445,1.254,3.733,-0.849,1.253
-0.000,0.453,1.213,3.831,-0.896,1.265
0.007,0.459,1.175,3.926,-0.952,1.275
0.013,0.461,1.134,4.019,-1.016,1.282
0.019,0.463,1.093,4.107,-1.083,1.287
0.024,0.463,1.047,4.195,-1.154,1.291
0.030,0.463,1.003,4.282,-1.227,1.292
0.036,0.461,0.959,4.370,-1.295,1.290
0.047,0.456,0.915,4.456,-1.358,1.288
0.098,0.443,0.735,4.804,-1.517,1.271
0.109,0.444,0.698,4.872,-1.530,1.263
0.119,0.446,0.661,4.935,-1.537,1.256
0.133,0.452,0.629,4.990,-1.531,1.245
0.145,0.460,0.598,5.038,-1.514,1.232
0.157,0.472,0.568,5.082,-1.488,1.216
0.168,0.485,0.541,5.116,-1.455,1.200
0.180,0.497,0.513,5.146,-1.421,1.181
0.192,0.510,0.487,5.170,-1.387,1.161
0.204,0.524,0.461,5.189,-1.353,1.140
0.219,0.544,0.440,5.204,-1.321,1.116
0.239,0.558,0.410,5.219,-1.269,1.088
0.247,0.567,0.384,5.243,-1.217,1.056
0.250,0.570,0.368,5.266,-1.187,1.021
0.253,0.569,0.351,5.282,-1.162,0.982
0.257,0.570,0.333,5.291,-1.148,0.941
0.259,0.573,0.315,5.295,-1.148,0.897
0.261,0.578,0.297,5.290,-1.163,0.852
0.261,0.585,0.279,5.279,-1.195,0.805
0.263,0.595,0.260,5.258,-1.244,0.753
0.266,0.603,0.246,5.240,-1.282,0.716
0.272,0.612,0.221,5.207,-1.346,0.660
0.279,0.624,0.197,5.167,-1.412,0.598
0.285,0.636,0.171,5.119,-1.472,0.533
0.293,0.648,0.145,5.066,-1.524,0.466
0.300,0.660,0.117,5.007,-1.568,0.397
0.310,0.673,0.090,4.944,-1.598,0.328
0.320,0.686,0.063,4.876,-1.619,0.259
0.361,0.746,-0.063,4.504,-1.574,-0.034
0.367,0.764,-0.088,4.410,-1.543,-0.088
0.372,0.782,-0.114,4.308,-1.508,-0.139
0.376,0.801,-0.141,4.202,-1.472,-0.189
0.378,0.818,-0.167,4.088,-1.432,-0.238
0.380,0.833,-0.194,3.967,-1.391,-0.284
0.381,0.845,-0.218,3.843,-1.344,-0.329
0.379,0.854,-0.242,3.715,-1.291,-0.371
0.378,0.860,-0.264,3.584,-1.230,-0.412

0.187,0.844,-0.915,-2.868,-0.210,0.049
0.199,0.855,-0.947,-3.186,-0.218,0.035
0.212,0.850,-0.976,-3.520,-0.201,0.023
0.222,0.831,-0.999,-3.870,-0.148,0.015
0.229,0.803,-1.017,-4.227,-0.052,0.007
0.237,0.773,-1.026,-4.590,0.087,0.001
0.243,0.741,-1.022,-4.957,0.264,-0.005
0.244,0.708,-1.009,-5.326,0.466,-0.011
0.240,0.669,-0.986,-5.695,0.678,-0.016
0.227,0.626,-0.950,-6.060,0.882,-0.022
0.210,0.580,-0.903,-6.419,1.071,-0.032
0.191,0.531,-0.848,-6.775,1.236,-0.044
0.172,0.487,-0.785,-7.124,1.376,-0.060
0.156,0.447,-0.716,-7.464,1.493,-0.081
0.142,0.408,-0.641,-7.795,1.588,-0.104
0.133,0.372,-0.562,-8.112,1.666,-0.129
0.124,0.341,-0.480,-8.413,1.733,-0.154
0.116,0.315,-0.390,-8.696,1.793,-0.183
0.110,0.290,-0.297,-8.960,1.845,-0.211
0.097,0.208,0.118,-9.773,1.996,-0.326
0.106,0.193,0.218,-9.858,2.048,-0.350
0.118,0.180,0.319,-9.897,2.123,-0.376
0.131,0.170,0.421,-9.887,2.226,-0.402
0.143,0.163,0.529,-9.829,2.351,-0.430
0.148,0.154,0.639,-9.724,2.493,-0.460
0.147,0.143,0.752,-9.577,2.639,-0.493
0.145,0.139,0.869,-9.394,2.783,-0.528
0.140,0.137,0.987,-9.177,2.919,-0.562
0.128,0.132,1.106,-8.927,3.042,-0.593
0.112,0.132,1.228,-8.648,3.139,-0.619
0.091,0.137,1.348,-8.344,3.211,-0.643
0.068,0.142,1.468,-8.019,3.253,-0.667
0.046,0.151,1.586,-7.677,3.268,-0.692
0.021,0.165,1.699,-7.321,3.252,-0.716
-0.006,0.178,1.808,-6.950,3.202,-0.741
-0.032,0.186,1.914,-6.566,3.125,-0.766
-0.056,0.189,2.011,-6.170,3.022,-0.788
-0.083,0.191,2.100,-5.762,2.899,-0.805
-0.113,0.191,2.182,-5.341,2.758,-0.815
-0.144,0.191,2.256,-4.909,2.602,-0.822
-0.176,0.191,2.328,-4.467,2.429,-0.821
-0.292,0.226,2.542,-2.513,1.470,-0.699
-0.312,0.237,2.567,-2.070,1.213,-0.643
-0.326,0.246,2.580,-1.634,0.951,-0.577
-0.336,0.254,2.583,-1.207,0.691,-0.503
-0.340,0.265,2.574,-0.791,0.435,-0.424
-0.340,0.274,2.557,-0.386,0.193,-0.341
-0.336,0.281,2.532,0.002,-0.037,-0.255
-0.326,0.287,2.495,0.374,-0.248,-0.169
-0.315,0.295,2.450,0.728,-0.438,-0.083
-0.300,0.301,2.398,1.066,-0.611,0.000
-0.283,0.305,2.340,1.388,-0.761,0.081
-0.264,0.303,2.280,1.691,-0.891,0.159
-0.245,0.297,2.213,1.981,-0.998,0.234
-0.227,0.293,2.142,2.255,-1.088,0.304
-0.210,0.292,2.074,2.517,-1.161,0.370
-0.192,0.293,2.005,2.764,-1.223,0.430
-0.174,0.297,1.934,2.995,-1.273,0.486
-0.154,0.302,1.867,3.211,-1.314,0.538
-0.134,0.307,1.800,3.414,-1.348,0.587
-0.117,0.312,1.730,3.601,-1.375,0.633
-0.103,0.322,1.664,3.777,-1.399,0.675
-0.036,0.355,1.390,4.415,-1.496,0.815
-0.021,0.358,1.329,4.540,-1.507,0.841
-0.009,0.359,1.271,4.658,-1.517,0.863
0.001,0.361,1.216,4.769,-1.525,0.880
0.010,0.364,1.163,4.873,-1.539,0.895
0.020,0.368,1.107,4.969,-1.556,0.905
0.029,0.372,1.053,5.058,-1.577,0.911
0.038,0.376,1.001,5.139,-1.604,0.913
0.046,0.382,0.951,5.214,-1.639,0.910
0.052,0.388,0.901,5.282,-1.681,0.904
0.058,0.393,0.852,5.342,-1.733,0.893
0.067,0.398,0.802,5.398,-1.789,0.878
0.075,0.402,0.754,5.447,-1.855,0.859
0.086,0.406,0.706,5.491,-1.909,0.836
0.095,0.412,0.661,5.530,-1.943,0.812
0.105,0.419,0.615,5.563,-1.983,0.784
0.115,0.429,0.569,5.590,-2.014,0.755
0.125,0.440,0.523,5.613,-2.039,0.722

0.183,0.726,-1.049,-2.552,-0.385,0.026
0.194,0.731,-1.093,-2.889,-0.319,0.029
0.206,0.736,-1.132,-3.266,-0.229,0.028
0.211,0.737,-1.160,-3.680,-0.117,0.023
0.211,0.729,-1.181,-4.129,0.009,0.017
0.206,0.709,-1.187,-4.610,0.140,0.005
0.201,0.678,-1.179,-5.115,0.274,-0.009
0.193,0.638,-1.160,-5.637,0.402,-0.027
0.180,0.591,-1.128,-6.171,0.527,-0.048
0.164,0.543,-1.086,-6.711,0.642,-0.071
0.147,0.494,-1.034,-7.245,0.748,-0.100
0.128,0.443,-0.975,-7.771,0.846,-0.133
0.108,0.392,-0.908,-8.282,0.937,-0.168
0.092,0.342,-0.834,-8.773,1.027,-0.203
0.083,0.293,-0.753,-9.239,1.123,-0.235
0.075,0.249,-0.665,-9.678,1.226,-0.261
0.070,0.211,-0.576,-10.086,1.338,-0.281
0.063,0.175,-0.480,-10.455,1.460,-0.293
0.053,0.138,-0.376,-10.781,1.586,-0.298
0.094,0.019,0.148,-11.571,2.206,-0.234
0.117,0.004,0.284,-11.585,2.418,-0.209
0.133,-0.007,0.424,-11.531,2.659,-0.187
0.148,-0.018,0.570,-11.415,2.916,-0.175
0.160,-0.026,0.725,-11.244,3.185,-0.169
0.169,-0.037,0.878,-11.019,3.468,-0.171
0.167,-0.049,1.034,-10.744,3.749,-0.181
0.158,-0.049,1.192,-10.424,4.020,-0.199
0.134,-0.050,1.353,-10.063,4.256,-0.230
0.095,-0.049,1.518,-9.668,4.426,-0.271
0.059,-0.036,1.678,-9.243,4.525,-0.325
0.023,-0.017,1.836,-8.784,4.550,-0.383
-0.017,0.007,1.994,-8.294,4.492,-0.445
-0.068,0.025,2.145,-7.772,4.353,-0.504
-0.122,0.039,2.285,-7.224,4.138,-0.566
-0.176,0.049,2.417,-6.652,3.852,-0.624
-0.229,0.064,2.537,-6.061,3.503,-0.675
-0.282,0.086,2.642,-5.457,3.101,-0.717
-0.451,0.233,2.907,-2.565,0.925,-0.744
-0.471,0.258,2.911,-1.956,0.480,-0.703
-0.485,0.283,2.900,-1.362,0.070,-0.645
-0.496,0.304,2.875,-0.790,-0.297,-0.569
-0.501,0.321,2.831,-0.243,-0.620,-0.477
-0.503,0.330,2.773,0.274,-0.905,-0.370
-0.499,0.332,2.705,0.758,-1.150,-0.252
-0.490,0.333,2.631,1.211,-1.362,-0.127
-0.476,0.332,2.549,1.631,-1.545,0.000
-0.457,0.329,2.464,2.021,-1.686,0.127
-0.442,0.323,2.405,2.264,-1.768,0.211
-0.415,0.315,2.313,2.603,-1.867,0.332
-0.384,0.308,2.220,2.917,-1.935,0.447
-0.352,0.301,2.129,3.205,-1.971,0.556
-0.320,0.296,2.040,3.468,-1.983,0.656
-0.287,0.293,1.952,3.709,-1.983,0.746
-0.252,0.292,1.864,3.924,-1.959,0.829
-0.218,0.294,1.777,4.115,-1.918,0.904
-0.188,0.299,1.694,4.286,-1.866,0.968
-0.161,0.306,1.616,4.435,-1.809,1.026
-0.135,0.316,1.542,4.562,-1.754,1.074
-0.034,0.382,1.230,4.908,-1.560,1.199
-0.014,0.400,1.175,4.941,-1.546,1.207
0.005,0.417,1.117,4.962,-1.541,1.206
0.017,0.426,1.082,4.971,-1.542,1.205
0.037,0.439,1.030,4.977,-1.551,1.197
0.054,0.449,0.978,4.978,-1.568,1.188
0.071,0.459,0.930,4.972,-1.589,1.174
0.088,0.470,0.882,4.962,-1.608,1.157
0.104,0.479,0.832,4.952,-1.622,1.138
0.120,0.486,0.785,4.940,-1.626,1.113
0.133,0.494,0.739,4.929,-1.619,1.087
0.146,0.499,0.696,4.921,-1.602,1.057
0.156,0.504,0.653,4.917,-1.575,1.025
0.166,0.508,0.611,4.916,-1.543,0.991
0.174,0.509,0.573,4.919,-1.503,0.959
0.180,0.508,0.535,4.924,-1.459,0.926
0.184,0.509,0.499,4.933,-1.413,0.893
0.187,0.508,0.463,4.942,-1.366,0.862
0.189,0.507,0.424,4.954,-1.321,0.832
0.192,0.505,0.389,4.966,-1.278,0.801
0.196,0.505,0.353,4.978,-1.237,0.774
0.197,0.507,0.318,4.989,-1.198,0.745

0.150,0.634,-1.121,-4.478,0.115,0.237
0.149,0.619,-1.127,-4.897,0.321,0.258
0.144,0.605,-1.117,-5.340,0.542,0.272
0.138,0.588,-1.094,-5.810,0.767,0.280
0.127,0.564,-1.054,-6.298,0.987,0.282
0.113,0.536,-1.003,-6.803,1.189,0.278
0.098,0.505,-0.936,-7.312,1.363,0.269
0.084,0.464,-0.859,-7.818,1.506,0.258
0.072,0.418,-0.776,-8.306,1.620,0.244
0.064,0.370,-0.682,-8.768,1.710,0.229
0.064,0.324,-0.579,-9.195,1.787,0.212
0.071,0.283,-0.471,-9.575,1.851,0.199
0.089,0.248,-0.355,-9.903,1.909,0.187
0.110,0.214,-0.234,-10.171,1.972,0.178
0.132,0.176,-0.108,-10.378,2.049,0.164
0.161,0.139,0.028,-10.523,2.147,0.146
0.193,0.110,0.161,-10.606,2.269,0.122
0.223,0.087,0.298,-10.629,2.419,0.092
0.248,0.070,0.438,-10.595,2.589,0.052
0.266,0.064,0.532,-10.541,2.715,0.019
0.290,0.062,0.675,-10.419,2.922,-0.043
0.308,0.065,0.821,-10.247,3.131,-0.119
0.263,0.021,1.471,-8.888,3.993,-0.644
0.228,0.031,1.607,-8.490,4.083,-0.779
0.189,0.042,1.737,-8.059,4.119,-0.914
0.146,0.055,1.863,-7.601,4.097,-1.044
0.102,0.072,1.984,-7.118,4.014,-1.161
0.052,0.087,2.098,-6.614,3.871,-1.262
0.000,0.106,2.203,-6.099,3.673,-1.346
-0.050,0.129,2.297,-5.577,3.430,-1.411
-0.101,0.154,2.381,-5.053,3.151,-1.458
-0.152,0.175,2.450,-4.533,2.843,-1.487
-0.201,0.195,2.509,-4.019,2.514,-1.497
-0.247,0.213,2.552,-3.517,2.175,-1.491
-0.288,0.231,2.579,-3.028,1.830,-1.465
-0.322,0.248,2.593,-2.556,1.487,-1.422
-0.352,0.265,2.593,-2.099,1.153,-1.360
-0.375,0.279,2.583,-1.657,0.835,-1.282
-0.390,0.291,2.561,-1.231,0.543,-1.187
-0.401,0.303,2.532,-0.823,0.283,-1.076
-0.411,0.313,2.492,-0.431,0.056,-0.951
-0.418,0.322,2.446,-0.060,-0.140,-0.816
-0.388,0.347,2.176,1.320,-0.736,-0.180
-0.371,0.351,2.104,1.589,-0.816,-0.038
-0.351,0.350,2.031,1.841,-0.879,0.097
-0.330,0.347,1.958,2.074,-0.926,0.223
-0.306,0.343,1.887,2.289,-0.960,0.344
-0.284,0.341,1.815,2.486,-0.984,0.453
-0.260,0.342,1.744,2.666,-1.004,0.554
-0.234,0.346,1.676,2.830,-1.020,0.646
-0.207,0.354,1.609,2.978,-1.031,0.729
-0.181,0.361,1.543,3.110,-1.038,0.801
-0.153,0.372,1.484,3.231,-1.043,0.865
-0.122,0.384,1.427,3.340,-1.038,0.921
-0.092,0.395,1.370,3.437,-1.024,0.967
-0.065,0.405,1.314,3.527,-1.004,1.007
-0.040,0.417,1.262,3.608,-0.982,1.039
-0.016,0.431,1.213,3.681,-0.965,1.062
0.006,0.442,1.166,3.748,-0.951,1.079
0.028,0.452,1.122,3.808,-0.942,1.090
0.040,0.459,1.094,3.844,-0.939,1.094
0.056,0.467,1.055,3.895,-0.939,1.093
0.071,0.476,1.015,3.943,-0.946,1.084
0.085,0.482,0.976,3.987,-0.957,1.072
0.099,0.487,0.937,4.028,-0.967,1.054
0.108,0.492,0.900,4.070,-0.982,1.031
0.141,0.493,0.745,4.261,-1.068,0.892
0.147,0.493,0.715,4.303,-1.082,0.859
0.150,0.492,0.693,4.330,-1.092,0.836
0.154,0.493,0.661,4.368,-1.105,0.803
0.155,0.496,0.630,4.406,-1.121,0.768
0.157,0.502,0.602,4.439,-1.137,0.733
0.163,0.511,0.575,4.469,-1.150,0.697
0.171,0.522,0.549,4.494,-1.159,0.659
0.177,0.535,0.524,4.516,-1.160,0.624
0.183,0.548,0.500,4.533,-1.153,0.586
0.187,0.559,0.477,4.547,-1.142,0.549
0.191,0.570,0.454,4.558,-1.129,0.512
0.194,0.581,0.431,4.567,-1.119,0.475
0.195,0.588,0.409,4.571,-1.106,0.436

0.242,0.788,-0.875,-3.010,0.186,-0.125
0.235,0.768,-0.893,-3.317,0.299,-0.138
0.228,0.743,-0.904,-3.639,0.407,-0.153
0.218,0.717,-0.910,-3.973,0.506,-0.169
0.208,0.690,-0.907,-4.319,0.596,-0.188
0.198,0.660,-0.896,-4.677,0.680,-0.211
0.187,0.633,-0.879,-5.044,0.758,-0.235
0.177,0.606,-0.852,-5.420,0.833,-0.262
0.170,0.582,-0.818,-5.802,0.908,-0.289
0.164,0.558,-0.780,-6.190,0.979,-0.315
0.156,0.532,-0.737,-6.578,1.044,-0.335
0.144,0.501,-0.690,-6.962,1.103,-0.351
0.129,0.467,-0.638,-7.339,1.159,-0.364
0.113,0.430,-0.578,-7.704,1.213,-0.376
0.095,0.396,-0.515,-8.054,1.272,-0.390
0.078,0.367,-0.443,-8.386,1.335,-0.405
0.060,0.341,-0.366,-8.696,1.398,-0.424
0.043,0.317,-0.282,-8.984,1.465,-0.446
0.028,0.295,-0.191,-9.246,1.532,-0.469
0.013,0.219,0.251,-10.013,1.841,-0.528
0.023,0.203,0.357,-10.077,1.951,-0.529
0.040,0.189,0.467,-10.091,2.093,-0.530
0.057,0.172,0.580,-10.053,2.279,-0.533
0.070,0.158,0.695,-9.960,2.502,-0.540
0.076,0.152,0.813,-9.819,2.751,-0.554
0.078,0.148,0.934,-9.630,3.014,-0.577
0.068,0.136,1.061,-9.399,3.277,-0.607
0.046,0.128,1.185,-9.129,3.526,-0.648
0.020,0.122,1.310,-8.822,3.743,-0.697
-0.014,0.118,1.437,-8.486,3.913,-0.751
-0.048,0.115,1.559,-8.121,4.033,-0.803
-0.084,0.117,1.681,-7.728,4.114,-0.852
-0.129,0.117,1.798,-7.308,4.146,-0.893
-0.183,0.127,1.913,-6.867,4.115,-0.925
-0.236,0.138,2.025,-6.407,4.016,-0.946
-0.288,0.150,2.127,-5.932,3.856,-0.956
-0.340,0.161,2.222,-5.446,3.645,-0.952
-0.387,0.176,2.310,-4.954,3.399,-0.935
-0.432,0.198,2.390,-4.460,3.121,-0.907
-0.586,0.293,2.610,-2.339,1.685,-0.656
-0.608,0.307,2.630,-1.863,1.312,-0.570
-0.620,0.317,2.636,-1.393,0.940,-0.475
-0.627,0.323,2.630,-0.933,0.571,-0.369
-0.625,0.329,2.608,-0.481,0.217,-0.256
-0.615,0.333,2.577,-0.040,-0.112,-0.139
-0.599,0.338,2.530,0.385,-0.411,-0.021
-0.579,0.339,2.476,0.797,-0.677,0.097
-0.553,0.337,2.416,1.191,-0.906,0.213
-0.524,0.334,2.349,1.565,-1.100,0.326
-0.494,0.326,2.279,1.920,-1.265,0.434
-0.465,0.316,2.209,2.253,-1.402,0.535
-0.438,0.309,2.133,2.564,-1.517,0.630
-0.404,0.305,2.058,2.850,-1.611,0.716
-0.371,0.302,1.981,3.114,-1.681,0.795
-0.339,0.298,1.901,3.358,-1.727,0.865
-0.311,0.294,1.822,3.580,-1.754,0.928
-0.286,0.293,1.747,3.784,-1.768,0.982
-0.260,0.290,1.672,3.970,-1.768,1.030
-0.236,0.292,1.598,4.136,-1.755,1.073
-0.215,0.297,1.525,4.286,-1.734,1.108
-0.129,0.346,1.246,4.767,-1.640,1.207
-0.111,0.360,1.190,4.845,-1.620,1.221
-0.096,0.373,1.135,4.912,-1.603,1.233
-0.084,0.385,1.083,4.972,-1.593,1.242
-0.073,0.398,1.032,5.020,-1.590,1.247
-0.065,0.411,0.982,5.061,-1.597,1.249
-0.056,0.423,0.934,5.096,-1.620,1.246
-0.047,0.432,0.887,5.122,-1.652,1.242
-0.037,0.439,0.841,5.142,-1.690,1.235
-0.025,0.447,0.793,5.157,-1.734,1.225
-0.008,0.450,0.747,5.168,-1.774,1.214
0.010,0.453,0.700,5.177,-1.807,1.203
0.028,0.455,0.654,5.185,-1.830,1.191
0.045,0.459,0.608,5.190,-1.845,1.178
0.064,0.463,0.565,5.193,-1.849,1.166
0.081,0.468,0.526,5.193,-1.842,1.153
0.097,0.476,0.484,5.191,-1.827,1.137
0.120,0.493,0.448,5.187,-1.800,1.119
0.139,0.499,0.406,5.187,-1.747,1.094
0.149,0.500,0.375,5.188,-1.700,1.066

0.234,0.760,-0.919,-3.772,-0.915,-0.064
0.234,0.739,-0.932,-4.152,-0.842,-0.072
0.234,0.715,-0.939,-4.544,-0.740,-0.084
0.232,0.692,-0.935,-4.949,-0.604,-0.100
0.230,0.666,-0.922,-5.362,-0.441,-0.122
0.225,0.643,-0.900,-5.782,-0.251,-0.147
0.216,0.620,-0.866,-6.205,-0.039,-0.177
0.205,0.595,-0.820,-6.629,0.183,-0.212
0.189,0.564,-0.762,-7.049,0.409,-0.249
0.167,0.526,-0.698,-7.459,0.629,-0.287
0.143,0.487,-0.628,-7.855,0.832,-0.328
0.121,0.448,-0.551,-8.231,1.014,-0.367
0.099,0.406,-0.469,-8.582,1.176,-0.405
0.081,0.365,-0.383,-8.901,1.322,-0.441
0.068,0.326,-0.294,-9.184,1.457,-0.473
0.057,0.293,-0.201,-9.429,1.581,-0.497
0.055,0.270,-0.105,-9.631,1.700,-0.515
0.060,0.256,-0.001,-9.791,1.824,-0.529
0.091,0.197,0.488,-9.956,2.506,-0.561
0.094,0.188,0.610,-9.879,2.677,-0.577
0.098,0.182,0.733,-9.764,2.846,-0.597
0.098,0.178,0.854,-9.609,3.018,-0.628
0.098,0.174,0.976,-9.414,3.193,-0.664
0.093,0.166,1.097,-9.181,3.366,-0.709
0.080,0.153,1.216,-8.914,3.529,-0.758
0.060,0.143,1.335,-8.613,3.674,-0.812
0.032,0.136,1.454,-8.283,3.797,-0.869
-0.008,0.130,1.570,-7.924,3.880,-0.930
-0.051,0.133,1.686,-7.545,3.914,-0.994
-0.088,0.147,1.798,-7.148,3.903,-1.057
-0.123,0.168,1.902,-6.729,3.849,-1.112
-0.165,0.187,2.000,-6.292,3.749,-1.156
-0.211,0.206,2.092,-5.840,3.597,-1.186
-0.259,0.226,2.177,-5.378,3.395,-1.198
-0.307,0.244,2.251,-4.907,3.148,-1.195
-0.352,0.262,2.315,-4.430,2.862,-1.174
-0.392,0.283,2.365,-3.950,2.548,-1.138
-0.427,0.307,2.406,-3.473,2.217,-1.084
-0.459,0.328,2.435,-2.992,1.883,-1.018
-0.546,0.371,2.445,-0.999,0.565,-0.608
-0.555,0.374,2.424,-0.571,0.312,-0.490
-0.559,0.378,2.393,-0.163,0.074,-0.367
-0.559,0.385,2.356,0.227,-0.147,-0.242
-0.552,0.391,2.313,0.596,-0.353,-0.115
-0.538,0.394,2.263,0.944,-0.541,0.012
-0.520,0.394,2.205,1.273,-0.705,0.138
-0.496,0.388,2.143,1.585,-0.836,0.264
-0.470,0.380,2.081,1.880,-0.934,0.385
-0.442,0.372,2.016,2.160,-1.003,0.502
-0.416,0.366,1.951,2.424,-1.046,0.612
-0.390,0.362,1.886,2.673,-1.071,0.714
-0.363,0.358,1.822,2.906,-1.080,0.808
-0.339,0.356,1.758,3.122,-1.081,0.893
-0.316,0.353,1.690,3.324,-1.079,0.972
-0.293,0.349,1.627,3.510,-1.076,1.041
-0.272,0.346,1.566,3.680,-1.074,1.104
-0.249,0.346,1.506,3.834,-1.073,1.157
-0.228,0.348,1.446,3.974,-1.071,1.203
-0.207,0.354,1.387,4.098,-1.070,1.242
-0.183,0.364,1.332,4.210,-1.072,1.273
-0.160,0.375,1.280,4.308,-1.075,1.298
-0.082,0.422,1.068,4.614,-1.155,1.346
-0.066,0.430,1.024,4.663,-1.198,1.346
-0.050,0.436,0.978,4.708,-1.247,1.344
-0.032,0.440,0.935,4.746,-1.296,1.338
-0.014,0.446,0.892,4.782,-1.345,1.329
0.004,0.452,0.850,4.813,-1.387,1.318
0.021,0.457,0.810,4.842,-1.422,1.304
0.039,0.462,0.771,4.870,-1.449,1.287
0.062,0.477,0.736,4.897,-1.468,1.264
0.084,0.486,0.697,4.928,-1.463,1.237
0.096,0.488,0.665,4.965,-1.460,1.207
0.103,0.484,0.633,4.995,-1.457,1.173
0.112,0.476,0.602,5.022,-1.451,1.137
0.121,0.474,0.572,5.044,-1.444,1.098
0.127,0.477,0.544,5.063,-1.443,1.059
0.133,0.481,0.513,5.076,-1.444,1.016
0.139,0.489,0.485,5.086,-1.451,0.974
0.144,0.500,0.459,5.089,-1.459,0.927
0.150,0.512,0.429,5.088,-1.469,0.879

-0.165,0.126,1.818,-7.083,3.642,-1.078
-0.207,0.150,1.932,-6.667,3.502,-1.094
-0.247,0.171,2.036,-6.232,3.321,-1.097
-0.282,0.188,2.133,-5.777,3.111,-1.087
-0.316,0.204,2.221,-5.304,2.881,-1.062
-0.348,0.218,2.300,-4.819,2.641,-1.026
-0.379,0.230,2.370,-4.324,2.396,-0.977
-0.410,0.244,2.430,-3.825,2.145,-0.917
-0.441,0.262,2.482,-3.325,1.887,-0.848
-0.470,0.281,2.521,-2.830,1.619,-0.772
-0.495,0.296,2.552,-2.339,1.343,-0.686
-0.516,0.304,2.572,-1.857,1.068,-0.594
-0.533,0.308,2.577,-1.387,0.798,-0.495
-0.546,0.309,2.570,-0.927,0.540,-0.391
-0.552,0.311,2.552,-0.482,0.294,-0.283
-0.554,0.316,2.527,-0.051,0.066,-0.172
-0.550,0.320,2.491,0.365,-0.143,-0.060
-0.541,0.322,2.445,0.762,-0.332,0.055
-0.529,0.322,2.392,1.141,-0.500,0.171
-0.515,0.323,2.332,1.498,-0.651,0.287
-0.423,0.302,2.033,2.805,-1.138,0.765
-0.397,0.294,1.959,3.054,-1.203,0.865
-0.368,0.287,1.889,3.287,-1.252,0.959
-0.339,0.284,1.817,3.501,-1.291,1.044
-0.313,0.280,1.749,3.699,-1.330,1.122
-0.286,0.277,1.683,3.879,-1.372,1.189
-0.257,0.278,1.615,4.043,-1.418,1.247
-0.227,0.279,1.547,4.191,-1.460,1.295
-0.198,0.282,1.477,4.323,-1.497,1.332
-0.169,0.287,1.410,4.442,-1.528,1.359
-0.140,0.294,1.347,4.548,-1.551,1.376
-0.114,0.301,1.284,4.643,-1.564,1.385
-0.087,0.312,1.223,4.727,-1.573,1.387
-0.062,0.325,1.165,4.801,-1.578,1.382
-0.039,0.335,1.112,4.865,-1.580,1.373
-0.018,0.346,1.057,4.918,-1.580,1.357
0.001,0.356,1.008,4.962,-1.583,1.338
0.016,0.367,0.959,4.999,-1.584,1.314
0.030,0.380,0.912,5.027,-1.587,1.286
0.042,0.393,0.867,5.049,-1.591,1.253
0.054,0.404,0.823,5.063,-1.595,1.213
0.060,0.416,0.779,5.075,-1.603,1.171
0.065,0.427,0.739,5.085,-1.614,1.123
0.073,0.436,0.698,5.092,-1.630,1.074
0.100,0.468,0.529,5.092,-1.704,0.867
0.108,0.477,0.493,5.084,-1.712,0.822
0.115,0.490,0.458,5.073,-1.714,0.775
0.122,0.502,0.422,5.061,-1.707,0.729
0.129,0.515,0.387,5.047,-1.692,0.683
0.137,0.527,0.353,5.030,-1.669,0.640
0.149,0.546,0.325,5.009,-1.635,0.597
0.165,0.561,0.293,4.991,-1.571,0.553
0.171,0.565,0.268,4.977,-1.497,0.514
0.172,0.567,0.246,4.957,-1.424,0.477
0.172,0.569,0.223,4.932,-1.353,0.441
0.170,0.577,0.203,4.898,-1.286,0.403
0.169,0.591,0.182,4.855,-1.228,0.367
0.170,0.610,0.162,4.807,-1.181,0.331
0.170,0.635,0.142,4.752,-1.147,0.295
0.173,0.660,0.123,4.688,-1.119,0.258
0.177,0.683,0.105,4.617,-1.093,0.219
0.182,0.706,0.086,4.540,-1.064,0.180
0.187,0.725,0.064,4.458,-1.032,0.139
0.192,0.740,0.044,4.370,-0.995,0.100
0.196,0.756,0.025,4.278,-0.950,0.062
0.201,0.772,0.005,4.185,-0.900,0.021
0.205,0.788,-0.011,4.088,-0.845,-0.017
0.208,0.802,-0.027,3.989,-0.785,-0.055
0.209,0.816,-0.043,3.889,-0.722,-0.093
0.208,0.829,-0.058,3.787,-0.656,-0.129
0.198,0.865,-0.103,3.346,-0.376,-0.280
0.193,0.874,-0.109,3.243,-0.316,-0.309
0.188,0.881,-0.114,3.135,-0.259,-0.336
0.182,0.891,-0.118,3.026,-0.205,-0.361
0.176,0.901,-0.122,2.916,-0.159,-0.383
0.170,0.909,-0.122,2.802,-0.117,-0.402
0.164,0.916,-0.123,2.687,-0.081,-0.418
0.158,0.923,-0.124,2.571,-0.050,-0.430
0.150,0.929,-0.125,2.455,-0.021,-0.440
0.141,0.935,-0.124,2.339,0.000,-0.447

-0.080,0.134,1.851,-6.093,3.741,-1.497
-0.126,0.148,1.934,-5.723,3.548,-1.532
-0.172,0.161,2.013,-5.339,3.326,-1.545
-0.216,0.173,2.082,-4.947,3.079,-1.536
-0.262,0.189,2.145,-4.544,2.814,-1.504
-0.303,0.207,2.203,-4.139,2.539,-1.456
-0.344,0.228,2.252,-3.729,2.259,-1.393
-0.378,0.249,2.294,-3.317,1.977,-1.321
-0.410,0.267,2.326,-2.907,1.695,-1.236
-0.435,0.278,2.353,-2.497,1.420,-1.140
-0.459,0.285,2.373,-2.090,1.158,-1.035
-0.479,0.291,2.385,-1.688,0.915,-0.922
-0.497,0.297,2.387,-1.291,0.689,-0.803
-0.511,0.300,2.381,-0.901,0.474,-0.680
-0.520,0.302,2.372,-0.517,0.269,-0.552
-0.524,0.306,2.354,-0.144,0.076,-0.421
-0.524,0.312,2.329,0.220,-0.110,-0.292
-0.518,0.317,2.294,0.573,-0.284,-0.161
-0.504,0.318,2.253,0.912,-0.444,-0.031
-0.412,0.303,2.012,2.233,-0.898,0.503
-0.386,0.302,1.949,2.498,-0.956,0.612
-0.359,0.301,1.886,2.745,-1.001,0.711
-0.333,0.302,1.824,2.976,-1.038,0.802
-0.306,0.303,1.762,3.188,-1.068,0.884
-0.280,0.304,1.699,3.385,-1.096,0.960
-0.254,0.306,1.637,3.567,-1.125,1.028
-0.225,0.305,1.575,3.732,-1.150,1.087
-0.198,0.306,1.515,3.883,-1.171,1.137
-0.171,0.308,1.455,4.024,-1.187,1.176
-0.148,0.310,1.392,4.154,-1.199,1.207
-0.127,0.313,1.336,4.273,-1.222,1.229
-0.105,0.319,1.282,4.381,-1.255,1.242
-0.083,0.323,1.228,4.478,-1.293,1.247
-0.063,0.326,1.175,4.564,-1.337,1.245
-0.042,0.332,1.123,4.643,-1.382,1.237
-0.021,0.338,1.071,4.712,-1.429,1.222
-0.002,0.343,1.021,4.774,-1.475,1.199
0.015,0.352,0.969,4.826,-1.522,1.172
0.029,0.361,0.920,4.873,-1.567,1.139
0.043,0.371,0.873,4.912,-1.613,1.098
0.054,0.379,0.830,4.945,-1.658,1.051
0.064,0.390,0.785,4.972,-1.702,1.001
0.078,0.400,0.741,4.993,-1.739,0.948
0.119,0.449,0.572,5.016,-1.824,0.698
0.127,0.465,0.537,5.004,-1.825,0.639
0.133,0.482,0.503,4.986,-1.820,0.581
0.134,0.499,0.469,4.960,-1.808,0.524
0.138,0.515,0.439,4.927,-1.791,0.466
0.145,0.535,0.411,4.885,-1.767,0.410
0.156,0.557,0.383,4.837,-1.730,0.358
0.166,0.582,0.357,4.784,-1.678,0.308
0.177,0.606,0.331,4.728,-1.608,0.261
0.185,0.628,0.307,4.672,-1.524,0.214
0.191,0.648,0.282,4.614,-1.429,0.169
0.199,0.670,0.263,4.556,-1.327,0.127
0.213,0.695,0.246,4.496,-1.210,0.086
0.216,0.707,0.229,4.443,-1.086,0.046
0.211,0.711,0.218,4.387,-0.975,0.006
0.204,0.714,0.204,4.328,-0.869,-0.034
0.197,0.718,0.193,4.268,-0.775,-0.074
0.191,0.724,0.183,4.204,-0.695,-0.113
0.185,0.734,0.175,4.138,-0.630,-0.150
0.178,0.746,0.168,4.070,-0.581,-0.185
0.172,0.758,0.159,3.997,-0.546,-0.219
0.167,0.768,0.153,3.923,-0.521,-0.252
0.161,0.775,0.146,3.846,-0.509,-0.283
0.154,0.780,0.138,3.767,-0.503,-0.313
0.150,0.784,0.128,3.688,-0.503,-0.341
0.145,0.788,0.119,3.608,-0.506,-0.365
0.131,0.818,0.082,3.248,-0.543,-0.443
0.129,0.833,0.075,3.163,-0.553,-0.454
0.130,0.847,0.066,3.078,-0.560,-0.465
0.132,0.861,0.058,2.992,-0.563,-0.473
0.136,0.873,0.050,2.903,-0.560,-0.477
0.141,0.886,0.043,2.815,-0.547,-0.479
0.143,0.897,0.033,2.725,-0.528,-0.480
0.143,0.905,0.026,2.636,-0.497,-0.479
0.147,0.914,0.019,2.549,-0.457,-0.477
0.150,0.924,0.012,2.463,-0.410,-0.474
0.151,0.931,0.005,2.379,-0.353,-0.468

0.180,0.862,-0.913,-2.960,-0.906,0.138
0.180,0.863,-0.932,-3.364,-0.833,0.133
0.179,0.857,-0.945,-3.788,-0.741,0.119
0.172,0.841,-0.951,-4.227,-0.634,0.099
0.161,0.820,-0.944,-4.680,-0.511,0.070
0.147,0.794,-0.928,-5.139,-0.374,0.036
0.131,0.760,-0.900,-5.599,-0.226,-0.004
0.113,0.717,-0.865,-6.057,-0.069,-0.045
0.098,0.670,-0.822,-6.502,0.094,-0.082
0.084,0.622,-0.773,-6.932,0.260,-0.113
0.071,0.578,-0.721,-7.341,0.430,-0.137
0.065,0.535,-0.663,-7.722,0.608,-0.155
0.062,0.494,-0.596,-8.070,0.802,-0.168
0.062,0.451,-0.520,-8.383,1.020,-0.177
0.061,0.405,-0.440,-8.656,1.257,-0.183
0.059,0.363,-0.350,-8.892,1.505,-0.188
0.056,0.324,-0.252,-9.087,1.758,-0.196
0.053,0.292,-0.146,-9.245,2.008,-0.208
0.051,0.267,-0.034,-9.366,2.248,-0.222
0.036,0.197,0.490,-9.472,2.956,-0.347
0.040,0.184,0.613,-9.392,3.059,-0.393
0.043,0.176,0.736,-9.272,3.161,-0.444
0.047,0.174,0.858,-9.110,3.266,-0.504
0.044,0.171,0.985,-8.910,3.377,-0.573
0.033,0.172,1.111,-8.672,3.481,-0.649
0.013,0.175,1.239,-8.399,3.568,-0.733
-0.015,0.177,1.363,-8.094,3.619,-0.821
-0.053,0.172,1.486,-7.760,3.623,-0.907
-0.095,0.171,1.609,-7.405,3.572,-0.988
-0.129,0.194,1.721,-7.027,3.472,-1.060
-0.161,0.222,1.829,-6.627,3.335,-1.120
-0.200,0.245,1.934,-6.208,3.162,-1.163
-0.244,0.264,2.028,-5.773,2.955,-1.191
-0.290,0.283,2.116,-5.328,2.719,-1.204
-0.333,0.305,2.197,-4.873,2.456,-1.197
-0.373,0.331,2.267,-4.412,2.170,-1.173
-0.409,0.361,2.328,-3.947,1.867,-1.131
-0.441,0.388,2.375,-3.479,1.552,-1.072
-0.469,0.412,2.410,-3.013,1.237,-0.996
-0.490,0.431,2.434,-2.546,0.931,-0.906
-0.517,0.472,2.404,-0.449,-0.086,-0.337
-0.513,0.479,2.374,-0.038,-0.220,-0.201
-0.506,0.483,2.336,0.352,-0.337,-0.064
-0.496,0.482,2.292,0.722,-0.442,0.072
-0.482,0.477,2.242,1.068,-0.540,0.203
-0.465,0.470,2.186,1.394,-0.631,0.328
-0.445,0.459,2.125,1.700,-0.713,0.446
-0.418,0.445,2.061,1.986,-0.780,0.556
-0.391,0.430,1.995,2.254,-0.832,0.656
-0.365,0.418,1.930,2.505,-0.874,0.746
-0.339,0.411,1.863,2.738,-0.915,0.826
-0.313,0.408,1.797,2.954,-0.959,0.894
-0.285,0.406,1.732,3.153,-1.008,0.954
-0.267,0.406,1.689,3.276,-1.041,0.990
-0.240,0.405,1.621,3.445,-1.092,1.037
-0.212,0.405,1.554,3.597,-1.143,1.076
-0.185,0.406,1.487,3.732,-1.192,1.109
-0.160,0.408,1.421,3.851,-1.233,1.134
-0.135,0.412,1.358,3.958,-1.269,1.150
-0.112,0.421,1.297,4.049,-1.297,1.160
-0.087,0.432,1.236,4.129,-1.320,1.162
-0.065,0.443,1.177,4.197,-1.338,1.158
0.015,0.502,0.936,4.401,-1.397,1.071
0.025,0.511,0.890,4.424,-1.407,1.042
0.034,0.519,0.843,4.443,-1.420,1.012
0.044,0.524,0.797,4.458,-1.439,0.981
0.051,0.528,0.751,4.470,-1.459,0.950
0.057,0.531,0.722,4.476,-1.473,0.930
0.067,0.533,0.678,4.485,-1.488,0.898
0.076,0.535,0.637,4.490,-1.494,0.868
0.085,0.536,0.597,4.494,-1.489,0.838
0.093,0.542,0.559,4.495,-1.474,0.808
0.100,0.546,0.521,4.496,-1.452,0.777
0.109,0.549,0.482,4.497,-1.424,0.746
0.118,0.552,0.447,4.498,-1.389,0.714
0.128,0.557,0.413,4.500,-1.345,0.682
0.144,0.565,0.382,4.504,-1.283,0.648
0.151,0.565,0.353,4.516,-1.211,0.612
0.152,0.562,0.330,4.526,-1.149,0.574
0.155,0.561,0.309,4.534,-1.091,0.534

0.209,0.811,-0.881,-3.739,-0.802,0.048
0.203,0.782,-0.892,-4.171,-0.766,0.044
0.197,0.747,-0.898,-4.618,-0.725,0.038
0.193,0.710,-0.896,-5.073,-0.670,0.029
0.189,0.673,-0.886,-5.530,-0.595,0.015
0.187,0.634,-0.866,-5.983,-0.488,-0.006
0.187,0.593,-0.837,-6.428,-0.345,-0.034
0.183,0.550,-0.797,-6.860,-0.161,-0.067
0.177,0.505,-0.749,-7.276,0.061,-0.102
0.170,0.459,-0.691,-7.672,0.313,-0.142
0.164,0.417,-0.620,-8.050,0.587,-0.180
0.156,0.377,-0.541,-8.404,0.873,-0.218
0.147,0.341,-0.450,-8.734,1.162,-0.258
0.135,0.306,-0.354,-9.040,1.448,-0.299
0.122,0.270,-0.252,-9.315,1.726,-0.345
0.113,0.237,-0.141,-9.558,1.996,-0.395
0.104,0.211,-0.025,-9.763,2.255,-0.449
0.093,0.190,0.095,-9.928,2.498,-0.507
0.082,0.171,0.220,-10.047,2.720,-0.569
0.016,0.090,0.784,-10.021,3.419,-0.858
-0.004,0.083,0.920,-9.886,3.503,-0.927
-0.025,0.074,1.056,-9.701,3.557,-0.993
-0.048,0.068,1.189,-9.474,3.578,-1.055
-0.069,0.073,1.320,-9.200,3.577,-1.111
-0.086,0.087,1.447,-8.881,3.565,-1.160
-0.112,0.090,1.569,-8.515,3.547,-1.198
-0.153,0.080,1.694,-8.109,3.508,-1.224
-0.182,0.105,1.815,-7.678,3.451,-1.242
-0.205,0.150,1.933,-7.217,3.386,-1.248
-0.243,0.184,2.052,-6.730,3.291,-1.243
-0.292,0.201,2.163,-6.229,3.154,-1.227
-0.339,0.213,2.263,-5.717,2.976,-1.200
-0.381,0.230,2.353,-5.200,2.766,-1.159
-0.423,0.248,2.427,-4.678,2.530,-1.105
-0.462,0.269,2.492,-4.156,2.276,-1.039
-0.497,0.288,2.542,-3.634,2.016,-0.963
-0.534,0.307,2.579,-3.114,1.747,-0.880
-0.567,0.323,2.605,-2.598,1.471,-0.789
-0.639,0.350,2.578,-0.465,0.248,-0.285
-0.638,0.354,2.544,-0.013,-0.013,-0.150
-0.630,0.356,2.498,0.418,-0.254,-0.012
-0.616,0.356,2.444,0.827,-0.476,0.126
-0.594,0.354,2.384,1.210,-0.673,0.261
-0.567,0.350,2.313,1.568,-0.849,0.392
-0.538,0.345,2.242,1.901,-1.001,0.515
-0.505,0.337,2.166,2.206,-1.130,0.630
-0.466,0.323,2.089,2.490,-1.231,0.736
-0.427,0.310,2.010,2.754,-1.303,0.833
-0.388,0.300,1.929,2.998,-1.352,0.921
-0.354,0.291,1.851,3.222,-1.385,0.998
-0.322,0.285,1.777,3.428,-1.410,1.066
-0.290,0.282,1.703,3.614,-1.432,1.124
-0.257,0.283,1.629,3.779,-1.453,1.172
-0.222,0.286,1.556,3.927,-1.467,1.210
-0.191,0.291,1.485,4.056,-1.473,1.241
-0.160,0.299,1.416,4.170,-1.472,1.263
-0.132,0.310,1.350,4.268,-1.461,1.277
-0.107,0.321,1.287,4.352,-1.445,1.282
-0.084,0.335,1.228,4.423,-1.427,1.281
-0.062,0.350,1.172,4.481,-1.406,1.273
-0.042,0.365,1.116,4.528,-1.386,1.259
0.023,0.421,0.903,4.626,-1.337,1.159
0.034,0.434,0.859,4.630,-1.332,1.128
0.044,0.447,0.816,4.630,-1.331,1.094
0.053,0.458,0.775,4.626,-1.336,1.058
0.061,0.469,0.739,4.619,-1.346,1.020
0.069,0.478,0.701,4.607,-1.360,0.981
0.076,0.486,0.663,4.592,-1.375,0.943
0.084,0.493,0.625,4.575,-1.392,0.906
0.092,0.499,0.589,4.557,-1.406,0.869
0.097,0.504,0.554,4.539,-1.421,0.832
0.102,0.511,0.520,4.518,-1.432,0.797
0.110,0.517,0.489,4.495,-1.438,0.761
0.119,0.529,0.458,4.473,-1.435,0.728
0.135,0.546,0.430,4.452,-1.415,0.692
0.146,0.555,0.403,4.437,-1.376,0.654
0.151,0.558,0.382,4.421,-1.336,0.616
0.158,0.561,0.359,4.404,-1.293,0.578
0.164,0.566,0.333,4.385,-1.247,0.537
0.170,0.575,0.311,4.361,-1.200,0.497

-0.159,0.082,1.947,-6.979,3.850,-1.601
-0.190,0.121,2.066,-6.500,3.567,-1.648
-0.231,0.148,2.178,-5.996,3.278,-1.672
-0.279,0.172,2.284,-5.473,2.976,-1.673
-0.330,0.195,2.381,-4.941,2.655,-1.654
-0.380,0.220,2.464,-4.405,2.314,-1.612
-0.426,0.247,2.532,-3.867,1.955,-1.553
-0.466,0.277,2.584,-3.333,1.589,-1.477
-0.502,0.302,2.624,-2.804,1.225,-1.387
-0.533,0.321,2.647,-2.280,0.878,-1.283
-0.558,0.338,2.656,-1.763,0.558,-1.167
-0.579,0.354,2.654,-1.259,0.266,-1.041
-0.598,0.367,2.644,-0.770,-0.002,-0.904
-0.613,0.375,2.620,-0.303,-0.253,-0.755
-0.620,0.379,2.587,0.140,-0.490,-0.596
-0.618,0.378,2.542,0.559,-0.707,-0.432
-0.609,0.374,2.491,0.952,-0.894,-0.266
-0.590,0.368,2.432,1.322,-1.049,-0.100
-0.566,0.362,2.366,1.669,-1.172,0.062
-0.420,0.325,2.059,2.932,-1.359,0.685
-0.385,0.320,1.986,3.175,-1.344,0.803
-0.351,0.313,1.917,3.398,-1.325,0.912
-0.318,0.307,1.849,3.606,-1.306,1.010
-0.288,0.303,1.780,3.796,-1.291,1.095
-0.256,0.302,1.711,3.967,-1.280,1.167
-0.226,0.302,1.643,4.124,-1.276,1.230
-0.197,0.305,1.577,4.263,-1.279,1.281
-0.171,0.310,1.511,4.388,-1.292,1.321
-0.145,0.317,1.444,4.498,-1.313,1.351
-0.120,0.326,1.380,4.597,-1.341,1.369
-0.096,0.336,1.320,4.685,-1.372,1.377
-0.074,0.347,1.262,4.762,-1.406,1.378
-0.054,0.358,1.203,4.832,-1.444,1.371
-0.034,0.370,1.149,4.893,-1.482,1.355
-0.014,0.380,1.095,4.948,-1.521,1.333
0.003,0.392,1.045,4.995,-1.559,1.308
0.021,0.405,0.995,5.039,-1.595,1.277
0.038,0.418,0.948,5.076,-1.626,1.244
0.053,0.429,0.900,5.111,-1.652,1.208
0.066,0.437,0.855,5.142,-1.670,1.171
0.077,0.442,0.810,5.172,-1.685,1.132
0.087,0.447,0.766,5.198,-1.695,1.092
0.098,0.453,0.725,5.221,-1.701,1.050
0.106,0.460,0.687,5.243,-1.699,1.009
0.147,0.491,0.521,5.333,-1.602,0.817
0.154,0.491,0.481,5.362,-1.540,0.768
0.152,0.486,0.449,5.393,-1.485,0.718
0.153,0.480,0.418,5.422,-1.426,0.667
0.156,0.477,0.387,5.451,-1.364,0.615
0.158,0.479,0.356,5.477,-1.305,0.563
0.161,0.484,0.326,5.500,-1.250,0.512
0.166,0.491,0.297,5.520,-1.204,0.463
0.169,0.500,0.270,5.534,-1.161,0.413
0.173,0.512,0.241,5.544,-1.127,0.367
0.180,0.524,0.213,5.546,-1.094,0.320
0.188,0.539,0.182,5.542,-1.056,0.274
0.195,0.553,0.153,5.533,-1.014,0.226
0.201,0.563,0.135,5.523,-0.985,0.194
0.208,0.579,0.107,5.502,-0.942,0.147
0.214,0.594,0.078,5.472,-0.898,0.098
0.220,0.611,0.054,5.435,-0.856,0.049
0.224,0.630,0.028,5.388,-0.814,-0.002
0.228,0.651,0.005,5.333,-0.774,-0.055
0.233,0.673,-0.020,5.267,-0.735,-0.109
0.238,0.695,-0.043,5.193,-0.698,-0.163
0.239,0.715,-0.065,5.113,-0.657,-0.218
0.240,0.734,-0.085,5.026,-0.612,-0.276
0.240,0.750,-0.106,4.934,-0.565,-0.333
0.239,0.764,-0.126,4.836,-0.515,-0.391
0.222,0.825,-0.198,4.331,-0.258,-0.627
0.217,0.838,-0.207,4.214,-0.204,-0.666
0.212,0.850,-0.217,4.096,-0.155,-0.700
0.206,0.862,-0.227,3.977,-0.110,-0.729
0.201,0.872,-0.238,3.857,-0.066,-0.753
0.192,0.892,-0.241,3.732,-0.027,-0.773
0.179,0.917,-0.245,3.594,-0.021,-0.782
0.165,0.943,-0.245,3.440,-0.052,-0.780
0.145,0.958,-0.261,3.267,-0.126,-0.768
0.134,0.965,-0.280,3.092,-0.216,-0.753
0.126,0.965,-0.296,2.919,-0.294,-0.739

-0.212,0.226,1.710,-7.255,2.902,-1.306
-0.241,0.235,1.825,-6.884,2.793,-1.262
-0.269,0.246,1.937,-6.482,2.671,-1.214
-0.301,0.253,2.042,-6.055,2.539,-1.161
-0.336,0.249,2.138,-5.606,2.393,-1.105
-0.362,0.264,2.227,-5.142,2.237,-1.047
-0.379,0.291,2.309,-4.659,2.073,-0.985
-0.404,0.308,2.384,-4.163,1.892,-0.918
-0.434,0.316,2.450,-3.662,1.688,-0.847
-0.465,0.317,2.505,-3.155,1.467,-0.773
-0.489,0.317,2.544,-2.652,1.236,-0.693
-0.506,0.320,2.572,-2.151,1.000,-0.607
-0.519,0.326,2.585,-1.655,0.768,-0.511
-0.530,0.332,2.589,-1.163,0.547,-0.410
-0.539,0.335,2.582,-0.681,0.336,-0.302
-0.545,0.338,2.565,-0.213,0.136,-0.192
-0.549,0.339,2.536,0.238,-0.055,-0.079
-0.544,0.340,2.496,0.669,-0.236,0.038
-0.538,0.340,2.444,1.077,-0.407,0.159
-0.525,0.338,2.386,1.460,-0.564,0.279
-0.437,0.329,2.082,2.834,-1.081,0.766
-0.408,0.327,2.006,3.087,-1.170,0.862
-0.374,0.319,1.928,3.323,-1.243,0.950
-0.339,0.310,1.850,3.542,-1.296,1.033
-0.306,0.303,1.775,3.747,-1.335,1.108
-0.273,0.300,1.701,3.938,-1.363,1.174
-0.244,0.303,1.631,4.114,-1.386,1.230
-0.213,0.307,1.561,4.278,-1.408,1.277
-0.182,0.311,1.494,4.427,-1.427,1.313
-0.155,0.315,1.425,4.561,-1.443,1.341
-0.128,0.320,1.358,4.680,-1.454,1.361
-0.101,0.325,1.294,4.786,-1.458,1.375
-0.077,0.332,1.231,4.878,-1.457,1.381
-0.054,0.340,1.171,4.956,-1.451,1.380
-0.035,0.350,1.111,5.020,-1.439,1.372
-0.020,0.361,1.054,5.073,-1.427,1.359
-0.006,0.373,0.999,5.115,-1.418,1.341
0.006,0.381,0.947,5.147,-1.408,1.320
0.018,0.392,0.896,5.167,-1.401,1.294
0.028,0.402,0.842,5.182,-1.398,1.266
0.035,0.412,0.789,5.189,-1.403,1.237
0.043,0.422,0.741,5.191,-1.412,1.206
0.052,0.432,0.696,5.187,-1.422,1.174
0.061,0.445,0.651,5.179,-1.431,1.140
0.097,0.472,0.477,5.130,-1.420,0.970
0.105,0.476,0.440,5.110,-1.412,0.927
0.115,0.484,0.403,5.089,-1.399,0.885
0.127,0.499,0.369,5.065,-1.378,0.843
0.138,0.513,0.336,5.037,-1.349,0.801
0.149,0.527,0.306,5.005,-1.310,0.759
0.158,0.541,0.277,4.967,-1.264,0.717
0.167,0.554,0.248,4.924,-1.212,0.677
0.174,0.568,0.223,4.873,-1.157,0.636
0.180,0.583,0.199,4.820,-1.101,0.596
0.186,0.600,0.176,4.760,-1.048,0.556
0.194,0.618,0.156,4.695,-0.993,0.517
0.201,0.631,0.142,4.649,-0.955,0.491
0.210,0.652,0.120,4.577,-0.896,0.452
0.218,0.673,0.100,4.501,-0.834,0.412
0.225,0.692,0.083,4.421,-0.769,0.372
0.231,0.710,0.068,4.337,-0.703,0.332
0.233,0.728,0.055,4.247,-0.641,0.291
0.235,0.746,0.043,4.155,-0.584,0.246
0.236,0.760,0.031,4.058,-0.533,0.202
0.235,0.774,0.022,3.958,-0.490,0.156
0.234,0.788,0.009,3.854,-0.452,0.110
0.232,0.801,-0.003,3.746,-0.424,0.064
0.230,0.815,-0.013,3.638,-0.399,0.019
0.228,0.827,-0.021,3.528,-0.374,-0.028
0.225,0.838,-0.027,3.417,-0.344,-0.074
0.219,0.848,-0.034,3.307,-0.312,-0.121
0.193,0.874,-0.048,2.852,-0.162,-0.286
0.184,0.880,-0.050,2.755,-0.122,-0.313
0.177,0.888,-0.049,2.661,-0.081,-0.335
0.171,0.898,-0.048,2.569,-0.037,-0.354
0.167,0.907,-0.045,2.482,0.010,-0.370
0.158,0.917,-0.043,2.398,0.054,-0.384
0.149,0.923,-0.041,2.317,0.097,-0.394
0.138,0.927,-0.040,2.240,0.133,-0.400
0.129,0.931,-0.040,2.166,0.161,-0.403

0.090,0.297,1.627,-6.458,2.160,-0.657
0.069,0.298,1.724,-6.091,2.038,-0.729
0.045,0.305,1.817,-5.707,1.896,-0.797
0.024,0.313,1.899,-5.308,1.741,-0.858
-0.000,0.321,1.974,-4.897,1.571,-0.909
-0.015,0.328,2.021,-4.616,1.455,-0.937
-0.038,0.344,2.080,-4.191,1.280,-0.966
-0.062,0.360,2.131,-3.760,1.109,-0.982
-0.086,0.374,2.175,-3.327,0.943,-0.984
-0.112,0.384,2.209,-2.899,0.782,-0.972
-0.138,0.395,2.235,-2.470,0.629,-0.945
-0.165,0.406,2.256,-2.051,0.480,-0.904
-0.191,0.422,2.266,-1.642,0.333,-0.850
-0.218,0.436,2.272,-1.246,0.187,-0.784
-0.237,0.447,2.270,-0.867,0.046,-0.707
-0.252,0.454,2.259,-0.508,-0.085,-0.619
-0.264,0.460,2.239,-0.165,-0.200,-0.521
-0.272,0.464,2.215,0.160,-0.298,-0.417
-0.276,0.469,2.186,0.468,-0.379,-0.310
-0.254,0.485,1.989,1.694,-0.608,0.204
-0.243,0.479,1.937,1.919,-0.633,0.310
-0.231,0.471,1.886,2.130,-0.650,0.411
-0.216,0.464,1.835,2.331,-0.663,0.507
-0.203,0.458,1.783,2.521,-0.677,0.594
-0.187,0.453,1.730,2.701,-0.695,0.674
-0.170,0.449,1.675,2.870,-0.718,0.746
-0.151,0.447,1.621,3.030,-0.746,0.808
-0.132,0.446,1.563,3.179,-0.780,0.863
-0.113,0.448,1.507,3.320,-0.821,0.910
-0.091,0.452,1.451,3.453,-0.862,0.949
-0.077,0.456,1.413,3.537,-0.891,0.971
-0.056,0.459,1.358,3.659,-0.931,0.999
-0.034,0.462,1.302,3.774,-0.967,1.022
-0.015,0.466,1.245,3.881,-0.998,1.040
0.002,0.470,1.191,3.983,-1.027,1.054
0.021,0.474,1.141,4.079,-1.055,1.061
0.038,0.477,1.091,4.170,-1.077,1.066
0.054,0.479,1.041,4.255,-1.098,1.066
0.069,0.484,0.993,4.335,-1.120,1.063
0.082,0.486,0.947,4.409,-1.142,1.056
0.094,0.488,0.904,4.478,-1.163,1.044
0.105,0.490,0.860,4.541,-1.183,1.028
0.112,0.491,0.816,4.602,-1.204,1.008
0.149,0.506,0.648,4.800,-1.288,0.885
0.164,0.514,0.613,4.837,-1.292,0.851
0.171,0.516,0.581,4.873,-1.287,0.816
0.173,0.516,0.552,4.903,-1.286,0.780
0.175,0.515,0.524,4.926,-1.280,0.742
0.179,0.520,0.497,4.943,-1.274,0.701
0.184,0.527,0.469,4.954,-1.266,0.662
0.190,0.538,0.440,4.959,-1.254,0.623
0.197,0.550,0.410,4.959,-1.240,0.583
0.207,0.564,0.380,4.955,-1.221,0.543
0.213,0.578,0.354,4.948,-1.200,0.502
0.218,0.594,0.323,4.936,-1.175,0.461
0.223,0.609,0.294,4.921,-1.149,0.417
0.228,0.622,0.268,4.903,-1.122,0.371
0.232,0.634,0.243,4.882,-1.091,0.324
0.235,0.644,0.219,4.858,-1.055,0.276
0.238,0.652,0.194,4.831,-1.020,0.228
0.239,0.663,0.171,4.801,-0.985,0.179
0.241,0.671,0.148,4.767,-0.955,0.130
0.241,0.680,0.129,4.729,-0.925,0.082
0.241,0.687,0.107,4.686,-0.896,0.033
0.240,0.697,0.089,4.638,-0.871,-0.016
0.238,0.705,0.068,4.586,-0.846,-0.066
0.235,0.717,0.051,4.527,-0.823,-0.117
0.234,0.733,0.034,4.461,-0.797,-0.169
0.233,0.750,0.016,4.388,-0.774,-0.222
0.232,0.768,-0.004,4.307,-0.751,-0.275
0.224,0.840,-0.087,3.880,-0.679,-0.480
0.222,0.852,-0.105,3.767,-0.658,-0.519
0.220,0.864,-0.120,3.650,-0.632,-0.553
0.214,0.876,-0.136,3.529,-0.600,-0.582
0.211,0.890,-0.151,3.406,-0.565,-0.609
0.208,0.906,-0.166,3.280,-0.526,-0.630
0.205,0.919,-0.181,3.154,-0.481,-0.647
0.201,0.931,-0.194,3.028,-0.430,-0.658
0.197,0.941,-0.204,2.902,-0.375,-0.664
0.191,0.949,-0.211,2.778,-0.315,-0.664

0.201,0.794,-0.982,-2.538,-1.112,0.096
0.209,0.780,-1.037,-2.894,-1.179,0.128
0.214,0.760,-1.089,-3.272,-1.228,0.160
0.219,0.737,-1.139,-3.675,-1.253,0.188
0.224,0.718,-1.182,-4.097,-1.242,0.211
0.232,0.701,-1.224,-4.537,-1.188,0.221
0.244,0.671,-1.257,-4.991,-1.078,0.225
0.256,0.630,-1.282,-5.457,-0.914,0.226
0.269,0.582,-1.294,-5.931,-0.699,0.226
0.277,0.524,-1.292,-6.413,-0.430,0.223
0.281,0.465,-1.272,-6.900,-0.121,0.220
0.277,0.404,-1.241,-7.394,0.219,0.209
0.263,0.346,-1.189,-7.891,0.569,0.184
0.245,0.292,-1.122,-8.392,0.914,0.142
0.222,0.234,-1.041,-8.895,1.242,0.083
0.195,0.175,-0.946,-9.394,1.535,0.010
0.160,0.115,-0.841,-9.881,1.778,-0.077
0.124,0.054,-0.729,-10.352,1.965,-0.172
0.090,-0.006,-0.607,-10.797,2.093,-0.272
0.031,-0.209,-0.033,-12.267,2.321,-0.644
0.034,-0.228,0.103,-12.461,2.389,-0.711
0.042,-0.237,0.241,-12.584,2.492,-0.777
0.057,-0.242,0.386,-12.636,2.636,-0.842
0.077,-0.249,0.539,-12.615,2.828,-0.905
0.085,-0.264,0.694,-12.520,3.062,-0.967
0.085,-0.281,0.857,-12.348,3.317,-1.030
0.077,-0.290,1.025,-12.104,3.576,-1.093
0.060,-0.287,1.198,-11.794,3.820,-1.150
0.034,-0.281,1.372,-11.417,4.046,-1.207
-0.004,-0.269,1.551,-10.981,4.238,-1.261
-0.055,-0.248,1.731,-10.491,4.374,-1.315
-0.113,-0.219,1.911,-9.955,4.442,-1.370
-0.175,-0.184,2.090,-9.378,4.426,-1.420
-0.231,-0.133,2.263,-8.768,4.338,-1.467
-0.283,-0.079,2.424,-8.126,4.193,-1.505
-0.539,0.049,2.977,-5.117,3.011,-1.501
-0.592,0.076,3.057,-4.409,2.632,-1.452
-0.642,0.103,3.119,-3.707,2.228,-1.382
-0.685,0.126,3.157,-3.015,1.812,-1.296
-0.723,0.140,3.169,-2.335,1.396,-1.190
-0.751,0.146,3.160,-1.673,0.992,-1.066
-0.771,0.155,3.134,-1.031,0.614,-0.929
-0.786,0.168,3.092,-0.416,0.264,-0.781
-0.798,0.180,3.037,0.164,-0.063,-0.625
-0.799,0.187,2.967,0.708,-0.368,-0.463
-0.791,0.190,2.885,1.214,-0.644,-0.297
-0.775,0.191,2.794,1.684,-0.888,-0.129
-0.753,0.190,2.695,2.117,-1.097,0.037
-0.724,0.185,2.591,2.515,-1.275,0.200
-0.691,0.177,2.486,2.884,-1.423,0.360
-0.653,0.167,2.380,3.225,-1.542,0.511
-0.613,0.157,2.275,3.542,-1.634,0.652
-0.571,0.148,2.172,3.833,-1.702,0.786
-0.528,0.139,2.069,4.104,-1.752,0.910
-0.486,0.134,1.970,4.352,-1.788,1.022
-0.444,0.129,1.871,4.577,-1.813,1.121
-0.260,0.149,1.465,5.324,-1.816,1.412
-0.225,0.162,1.387,5.419,-1.803,1.442
-0.193,0.180,1.315,5.491,-1.790,1.462
-0.174,0.192,1.267,5.529,-1.783,1.470
-0.144,0.211,1.198,5.568,-1.775,1.475
-0.116,0.232,1.132,5.589,-1.769,1.472
-0.089,0.252,1.064,5.595,-1.763,1.460
-0.064,0.275,0.999,5.588,-1.759,1.442
-0.036,0.303,0.939,5.572,-1.754,1.419
-0.007,0.324,0.885,5.552,-1.739,1.387
0.014,0.339,0.833,5.524,-1.723,1.351
0.033,0.351,0.781,5.494,-1.705,1.310
0.050,0.360,0.729,5.459,-1.684,1.264
0.066,0.371,0.680,5.420,-1.659,1.217
0.080,0.384,0.635,5.380,-1.631,1.167
0.091,0.402,0.592,5.335,-1.604,1.116
0.102,0.420,0.548,5.289,-1.577,1.061
0.110,0.436,0.509,5.241,-1.547,1.005
0.117,0.453,0.469,5.190,-1.513,0.946
0.123,0.466,0.435,5.138,-1.474,0.888
0.129,0.479,0.399,5.087,-1.430,0.831
0.137,0.492,0.368,5.037,-1.380,0.778
0.146,0.503,0.338,4.990,-1.321,0.730
0.155,0.514,0.310,4.945,-1.253,0.687

0.207,0.799,-0.927,-3.887,-0.919,0.010
0.212,0.791,-0.946,-4.290,-0.813,-0.006
0.209,0.771,-0.955,-4.706,-0.672,-0.027
0.203,0.741,-0.954,-5.132,-0.500,-0.053
0.190,0.705,-0.946,-5.561,-0.306,-0.084
0.172,0.664,-0.922,-5.989,-0.109,-0.117
0.153,0.618,-0.890,-6.415,0.087,-0.151
0.133,0.569,-0.846,-6.836,0.270,-0.183
0.114,0.517,-0.796,-7.244,0.444,-0.212
0.098,0.461,-0.736,-7.639,0.608,-0.236
0.081,0.408,-0.672,-8.017,0.764,-0.258
0.066,0.362,-0.600,-8.371,0.913,-0.277
0.051,0.320,-0.525,-8.701,1.054,-0.295
0.039,0.285,-0.443,-9.002,1.186,-0.312
0.031,0.256,-0.351,-9.273,1.312,-0.331
0.027,0.231,-0.251,-9.512,1.437,-0.348
0.025,0.212,-0.146,-9.715,1.558,-0.363
0.021,0.194,-0.035,-9.882,1.672,-0.375
-0.015,0.126,0.488,-10.198,1.992,-0.404
-0.016,0.119,0.611,-10.178,2.042,-0.415
-0.011,0.116,0.733,-10.121,2.107,-0.429
0.001,0.118,0.851,-10.014,2.199,-0.449
0.012,0.124,0.970,-9.859,2.322,-0.475
0.019,0.129,1.092,-9.647,2.471,-0.502
0.018,0.129,1.218,-9.382,2.644,-0.529
0.007,0.131,1.349,-9.064,2.818,-0.554
-0.015,0.137,1.484,-8.702,2.968,-0.579
-0.045,0.150,1.619,-8.303,3.072,-0.602
-0.081,0.165,1.754,-7.873,3.116,-0.623
-0.117,0.182,1.880,-7.417,3.098,-0.639
-0.146,0.210,2.000,-6.937,3.031,-0.650
-0.172,0.240,2.111,-6.434,2.929,-0.658
-0.199,0.262,2.215,-5.911,2.797,-0.654
-0.233,0.275,2.306,-5.374,2.633,-0.643
-0.268,0.284,2.388,-4.828,2.439,-0.623
-0.299,0.292,2.458,-4.279,2.220,-0.593
-0.327,0.300,2.516,-3.729,1.978,-0.552
-0.426,0.318,2.616,-1.287,0.755,-0.262
-0.436,0.317,2.603,-0.806,0.509,-0.184
-0.441,0.318,2.581,-0.345,0.277,-0.102
-0.441,0.323,2.546,0.097,0.062,-0.016
-0.437,0.329,2.502,0.515,-0.135,0.071
-0.425,0.335,2.452,0.911,-0.312,0.160
-0.407,0.340,2.396,1.286,-0.466,0.252
-0.385,0.340,2.334,1.639,-0.593,0.347
-0.360,0.335,2.268,1.973,-0.690,0.443
-0.335,0.329,2.202,2.289,-0.758,0.538
-0.312,0.321,2.136,2.586,-0.809,0.632
-0.290,0.313,2.069,2.864,-0.847,0.720
-0.275,0.309,2.023,3.039,-0.871,0.776
-0.254,0.303,1.954,3.285,-0.907,0.851
-0.234,0.296,1.887,3.512,-0.948,0.921
-0.213,0.290,1.820,3.719,-0.995,0.979
-0.194,0.285,1.754,3.907,-1.048,1.028
-0.173,0.280,1.684,4.078,-1.107,1.066
-0.153,0.278,1.611,4.232,-1.165,1.095
-0.132,0.279,1.543,4.371,-1.221,1.114
-0.112,0.281,1.476,4.494,-1.271,1.123
-0.091,0.289,1.409,4.603,-1.315,1.124
-0.009,0.348,1.117,4.943,-1.490,1.063
0.007,0.365,1.060,4.985,-1.520,1.041
0.026,0.388,1.007,5.018,-1.538,1.016
0.044,0.408,0.953,5.047,-1.541,0.989
0.058,0.422,0.903,5.072,-1.534,0.959
0.070,0.433,0.858,5.092,-1.518,0.930
0.079,0.442,0.813,5.109,-1.494,0.900
0.084,0.450,0.785,5.117,-1.476,0.881
0.089,0.462,0.743,5.124,-1.454,0.854
0.094,0.476,0.705,5.130,-1.438,0.825
0.101,0.489,0.666,5.131,-1.425,0.798
0.108,0.497,0.629,5.131,-1.410,0.773
0.115,0.503,0.593,5.129,-1.389,0.749
0.122,0.508,0.558,5.125,-1.359,0.727
0.128,0.513,0.525,5.122,-1.323,0.707
0.134,0.517,0.491,5.121,-1.279,0.687
0.139,0.519,0.459,5.117,-1.232,0.668
0.142,0.522,0.427,5.114,-1.183,0.650
0.146,0.526,0.401,5.107,-1.136,0.632
0.151,0.531,0.372,5.100,-1.090,0.613
0.155,0.537,0.346,5.088,-1.046,0.594

0.249,0.900,-0.781,-3.480,-0.902,-0.302
0.250,0.890,-0.795,-3.851,-0.795,-0.338
0.249,0.873,-0.802,-4.228,-0.658,-0.370
0.244,0.851,-0.801,-4.605,-0.496,-0.397
0.236,0.821,-0.789,-4.980,-0.314,-0.420
0.226,0.784,-0.768,-5.349,-0.117,-0.440
0.209,0.740,-0.740,-5.709,0.088,-0.459
0.189,0.692,-0.704,-6.058,0.294,-0.478
0.169,0.643,-0.658,-6.393,0.496,-0.498
0.150,0.594,-0.602,-6.714,0.695,-0.520
0.133,0.552,-0.542,-7.019,0.892,-0.545
0.114,0.519,-0.476,-7.308,1.081,-0.571
0.093,0.489,-0.405,-7.576,1.257,-0.602
0.072,0.462,-0.328,-7.826,1.415,-0.634
0.048,0.435,-0.245,-8.053,1.552,-0.667
0.028,0.409,-0.163,-8.253,1.666,-0.698
0.012,0.385,-0.074,-8.428,1.755,-0.724
-0.002,0.363,0.018,-8.574,1.822,-0.742
-0.055,0.333,0.434,-8.872,1.872,-0.741
-0.063,0.337,0.525,-8.856,1.858,-0.733
-0.064,0.339,0.621,-8.804,1.855,-0.727
-0.061,0.338,0.715,-8.716,1.874,-0.720
-0.062,0.337,0.811,-8.591,1.913,-0.715
-0.066,0.337,0.909,-8.430,1.965,-0.710
-0.070,0.342,1.003,-8.231,2.025,-0.705
-0.078,0.350,1.098,-7.998,2.091,-0.698
-0.088,0.358,1.191,-7.732,2.159,-0.691
-0.098,0.365,1.283,-7.434,2.228,-0.680
-0.112,0.374,1.376,-7.109,2.292,-0.667
-0.132,0.381,1.467,-6.763,2.343,-0.649
-0.154,0.393,1.553,-6.402,2.372,-0.629
-0.175,0.407,1.633,-6.031,2.373,-0.602
-0.197,0.421,1.710,-5.654,2.348,-0.571
-0.218,0.439,1.780,-5.275,2.303,-0.536
-0.240,0.454,1.842,-4.893,2.242,-0.499
-0.259,0.467,1.899,-4.510,2.167,-0.460
-0.279,0.476,1.947,-4.127,2.078,-0.419
-0.353,0.508,2.082,-2.468,1.538,-0.197
-0.367,0.507,2.090,-2.092,1.377,-0.131
-0.377,0.505,2.091,-1.725,1.207,-0.062
-0.384,0.502,2.085,-1.366,1.030,0.014
-0.385,0.499,2.075,-1.017,0.854,0.092
-0.382,0.493,2.054,-0.681,0.682,0.170
-0.378,0.485,2.029,-0.357,0.518,0.251
-0.370,0.477,2.000,-0.047,0.362,0.330
-0.361,0.468,1.968,0.248,0.216,0.409
-0.347,0.460,1.930,0.526,0.080,0.482
-0.333,0.453,1.889,0.790,-0.043,0.551
-0.315,0.449,1.845,1.038,-0.151,0.614
-0.295,0.446,1.797,1.269,-0.246,0.670
-0.275,0.441,1.750,1.487,-0.326,0.723
-0.254,0.435,1.703,1.690,-0.392,0.769
-0.234,0.429,1.657,1.882,-0.446,0.812
-0.213,0.424,1.608,2.058,-0.491,0.852
-0.194,0.422,1.562,2.224,-0.529,0.890
-0.173,0.422,1.518,2.375,-0.562,0.924
-0.152,0.424,1.473,2.516,-0.593,0.956
-0.132,0.430,1.429,2.645,-0.619,0.985
-0.110,0.433,1.386,2.763,-0.640,1.010
-0.086,0.441,1.342,2.871,-0.653,1.031
-0.019,0.450,1.172,3.236,-0.693,1.057
-0.006,0.456,1.134,3.298,-0.711,1.047
0.006,0.465,1.098,3.353,-0.732,1.034
0.014,0.474,1.061,3.404,-0.758,1.016
0.024,0.482,1.026,3.449,-0.788,0.995
0.035,0.489,0.991,3.491,-0.821,0.972
0.046,0.496,0.956,3.528,-0.851,0.948
0.057,0.503,0.921,3.564,-0.881,0.924
0.067,0.510,0.887,3.597,-0.907,0.899
0.074,0.519,0.854,3.629,-0.931,0.875
0.082,0.526,0.821,3.659,-0.954,0.848
0.087,0.534,0.789,3.688,-0.974,0.823
0.093,0.543,0.760,3.714,-0.995,0.795
0.100,0.553,0.728,3.740,-1.014,0.766
0.106,0.564,0.701,3.764,-1.029,0.738
0.113,0.574,0.673,3.789,-1.038,0.710
0.118,0.582,0.645,3.813,-1.040,0.680
0.119,0.591,0.621,3.839,-1.037,0.649
0.120,0.601,0.600,3.863,-1.032,0.617
0.120,0.610,0.580,3.887,-1.030,0.586

0.309,0.798,-0.831,-2.609,-0.360,-0.046
0.312,0.788,-0.860,-2.943,-0.344,-0.071
0.309,0.778,-0.881,-3.301,-0.319,-0.107
0.303,0.770,-0.893,-3.684,-0.291,-0.154
0.289,0.760,-0.897,-4.089,-0.265,-0.214
0.274,0.745,-0.895,-4.510,-0.245,-0.281
0.255,0.719,-0.884,-4.944,-0.231,-0.354
0.233,0.682,-0.867,-5.385,-0.221,-0.427
0.210,0.642,-0.843,-5.826,-0.209,-0.497
0.184,0.602,-0.814,-6.262,-0.190,-0.560
0.158,0.564,-0.778,-6.690,-0.162,-0.617
0.128,0.527,-0.738,-7.104,-0.123,-0.666
0.097,0.489,-0.692,-7.502,-0.078,-0.705
0.068,0.452,-0.640,-7.878,-0.026,-0.731
0.043,0.414,-0.582,-8.232,0.031,-0.745
0.022,0.378,-0.513,-8.561,0.097,-0.744
0.003,0.340,-0.441,-8.864,0.172,-0.727
-0.026,0.226,-0.024,-9.926,0.567,-0.485
-0.018,0.207,0.080,-10.057,0.684,-0.420
-0.007,0.187,0.182,-10.146,0.823,-0.363
0.009,0.167,0.288,-10.190,0.981,-0.315
0.030,0.148,0.402,-10.189,1.163,-0.278
0.050,0.129,0.517,-10.142,1.365,-0.258
0.066,0.114,0.636,-10.052,1.578,-0.253
0.080,0.101,0.757,-9.918,1.797,-0.268
0.094,0.092,0.879,-9.740,2.017,-0.301
0.105,0.087,1.004,-9.519,2.231,-0.353
0.113,0.085,1.126,-9.261,2.434,-0.418
0.114,0.086,1.250,-8.964,2.622,-0.494
0.107,0.093,1.374,-8.634,2.790,-0.576
0.091,0.102,1.495,-8.278,2.929,-0.661
0.069,0.122,1.612,-7.893,3.027,-0.746
0.041,0.139,1.729,-7.488,3.086,-0.827
0.003,0.154,1.840,-7.065,3.095,-0.902
-0.032,0.179,1.944,-6.631,3.054,-0.968
-0.067,0.200,2.042,-6.184,2.972,-1.025
-0.107,0.210,2.132,-5.726,2.844,-1.066
-0.145,0.213,2.214,-5.259,2.673,-1.093
-0.285,0.253,2.455,-3.210,1.706,-1.046
-0.310,0.265,2.484,-2.747,1.459,-1.003
-0.333,0.273,2.502,-2.288,1.211,-0.948
-0.356,0.278,2.511,-1.840,0.963,-0.885
-0.372,0.281,2.513,-1.404,0.724,-0.816
-0.386,0.285,2.503,-0.978,0.500,-0.741
-0.398,0.290,2.487,-0.566,0.297,-0.661
-0.408,0.294,2.462,-0.168,0.111,-0.576
-0.415,0.298,2.429,0.212,-0.059,-0.490
-0.418,0.302,2.388,0.575,-0.210,-0.399
-0.419,0.306,2.345,0.917,-0.347,-0.308
-0.416,0.308,2.297,1.240,-0.471,-0.211
-0.410,0.312,2.243,1.542,-0.585,-0.114
-0.401,0.318,2.185,1.826,-0.687,-0.016
-0.388,0.325,2.122,2.092,-0.778,0.081
-0.370,0.327,2.058,2.342,-0.854,0.177
-0.349,0.326,1.994,2.579,-0.909,0.271
-0.327,0.326,1.927,2.801,-0.948,0.364
-0.304,0.325,1.861,3.013,-0.974,0.451
-0.282,0.324,1.797,3.211,-0.995,0.534
-0.185,0.330,1.518,3.934,-1.079,0.811
-0.166,0.333,1.456,4.074,-1.104,0.854
-0.146,0.338,1.395,4.204,-1.130,0.886
-0.127,0.345,1.332,4.325,-1.156,0.912
-0.107,0.353,1.272,4.437,-1.181,0.930
-0.088,0.361,1.211,4.538,-1.205,0.941
-0.069,0.370,1.153,4.630,-1.226,0.946
-0.053,0.380,1.098,4.715,-1.247,0.946
-0.035,0.392,1.045,4.789,-1.265,0.941
-0.014,0.407,0.993,4.858,-1.279,0.930
0.003,0.415,0.946,4.921,-1.287,0.913
0.015,0.420,0.902,4.976,-1.297,0.893
0.025,0.424,0.859,5.025,-1.305,0.866
0.035,0.427,0.815,5.067,-1.310,0.836
0.044,0.430,0.772,5.102,-1.316,0.805
0.051,0.434,0.730,5.133,-1.324,0.770
0.060,0.437,0.694,5.156,-1.333,0.736
0.068,0.442,0.657,5.175,-1.346,0.701
0.074,0.449,0.623,5.187,-1.358,0.667
0.080,0.459,0.587,5.194,-1.373,0.634
0.089,0.467,0.554,5.196,-1.386,0.602
0.096,0.476,0.520,5.193,-1.393,0.573

0.209,0.855,-0.863,-3.392,-0.061,0.042
0.193,0.844,-0.888,-3.841,-0.092,0.022
0.176,0.824,-0.907,-4.318,-0.135,-0.002
0.161,0.797,-0.922,-4.817,-0.175,-0.028
0.150,0.764,-0.931,-5.330,-0.198,-0.055
0.140,0.722,-0.931,-5.847,-0.192,-0.082
0.126,0.673,-0.920,-6.359,-0.152,-0.106
0.113,0.621,-0.898,-6.863,-0.080,-0.128
0.101,0.564,-0.864,-7.353,0.020,-0.144
0.089,0.506,-0.815,-7.821,0.143,-0.154
0.080,0.447,-0.753,-8.264,0.281,-0.155
0.069,0.390,-0.681,-8.681,0.432,-0.151
0.058,0.336,-0.598,-9.068,0.590,-0.140
0.049,0.279,-0.504,-9.421,0.751,-0.130
0.043,0.226,-0.400,-9.736,0.919,-0.119
0.040,0.183,-0.288,-10.011,1.094,-0.113
0.043,0.144,-0.175,-10.244,1.273,-0.110
0.050,0.113,-0.053,-10.433,1.454,-0.112
0.099,0.021,0.508,-10.644,2.284,-0.216
0.110,0.010,0.645,-10.548,2.478,-0.271
0.115,-0.000,0.785,-10.400,2.668,-0.335
0.116,-0.007,0.923,-10.198,2.851,-0.405
0.113,-0.006,1.062,-9.945,3.020,-0.478
0.103,0.002,1.203,-9.641,3.172,-0.552
0.086,0.020,1.349,-9.290,3.296,-0.627
0.065,0.045,1.494,-8.897,3.381,-0.699
0.037,0.075,1.640,-8.467,3.417,-0.768
0.004,0.100,1.781,-8.005,3.400,-0.832
-0.029,0.133,1.911,-7.516,3.331,-0.888
-0.058,0.163,2.040,-7.002,3.217,-0.934
-0.093,0.192,2.157,-6.467,3.066,-0.972
-0.125,0.225,2.265,-5.918,2.888,-1.001
