aX,aY,aZ,gX,gY,gZ
-0.058,0.085,1.811,2.588,1.870,1.195
-0.075,0.069,1.843,2.951,1.939,1.237
-0.098,0.050,1.872,3.329,1.987,1.281
-0.123,0.029,1.897,3.715,2.002,1.330
-0.151,0.016,1.916,4.103,1.982,1.383
-0.182,-0.003,1.929,4.487,1.913,1.438
-0.215,-0.017,1.930,4.865,1.795,1.491
-0.245,-0.037,1.925,5.230,1.623,1.548
-0.268,-0.040,1.906,5.581,1.403,1.605
-0.287,-0.066,1.889,5.915,1.142,1.659
-0.307,-0.079,1.855,6.229,0.852,1.709
-0.320,-0.104,1.823,6.522,0.536,1.753
-0.330,-0.117,1.775,6.790,0.210,1.787
-0.333,-0.146,1.734,7.031,-0.126,1.816
-0.336,-0.140,1.679,7.241,-0.455,1.833
-0.325,-0.138,1.630,7.421,-0.805,1.841
-0.317,-0.137,1.570,7.563,-1.140,1.842
-0.307,-0.125,1.505,7.675,-1.479,1.832
-0.289,-0.106,1.435,7.756,-1.826,1.813
-0.150,0.019,1.088,7.811,-3.079,1.669
-0.112,0.052,1.004,7.768,-3.277,1.627
-0.082,0.081,0.920,7.707,-3.441,1.584
-0.055,0.108,0.834,7.629,-3.566,1.537
-0.024,0.141,0.752,7.538,-3.656,1.486
0.009,0.176,0.672,7.433,-3.707,1.435
0.027,0.192,0.592,7.313,-3.722,1.382
0.042,0.220,0.519,7.181,-3.704,1.325
0.078,0.277,0.447,7.036,-3.649,1.263
0.110,0.348,0.383,6.862,-3.557,1.217
0.121,0.400,0.309,6.665,-3.458,1.182
0.133,0.439,0.239,6.457,-3.343,1.150
0.151,0.483,0.164,6.236,-3.204,1.120
0.179,0.524,0.095,6.011,-3.016,1.086
0.201,0.555,0.029,5.781,-2.769,1.048
0.224,0.592,-0.032,5.545,-2.474,1.009
0.249,0.635,-0.088,5.303,-2.139,0.965
0.274,0.677,-0.136,5.056,-1.780,0.922
0.294,0.709,-0.177,4.804,-1.410,0.880
0.302,0.726,-0.210,4.550,-1.046,0.842
0.302,0.737,-0.234,4.291,-0.702,0.806
0.302,0.751,-0.252,4.024,-0.391,0.772
0.297,0.762,-0.260,3.749,-0.117,0.735
0.289,0.772,-0.263,3.465,0.113,0.698
0.282,0.785,-0.264,3.175,0.302,0.657
0.279,0.838,-0.241,1.893,0.825,0.440
0.280,0.840,-0.227,1.610,0.918,0.384
0.278,0.840,-0.209,1.339,1.009,0.329
0.279,0.840,-0.189,1.077,1.097,0.275
0.279,0.839,-0.166,0.828,1.186,0.223
0.275,0.840,-0.140,0.593,1.275,0.178
0.267,0.839,-0.113,0.372,1.361,0.137
0.257,0.833,-0.086,0.166,1.444,0.101
0.245,0.826,-0.053,-0.026,1.522,0.071
0.232,0.821,-0.017,-0.208,1.590,0.046
0.220,0.819,0.019,-0.379,1.644,0.027
0.207,0.817,0.054,-0.540,1.688,0.012
0.197,0.816,0.087,-0.690,1.723,0.001
0.188,0.817,0.118,-0.830,1.756,-0.007
0.178,0.815,0.151,-0.960,1.787,-0.013
0.167,0.815,0.185,-1.082,1.816,-0.018
0.159,0.814,0.213,-1.197,1.841,-0.023
0.152,0.813,0.243,-1.307,1.865,-0.027
0.148,0.814,0.272,-1.409,1.890,-0.027
0.143,0.819,0.299,-1.506,1.917,-0.021
0.133,0.824,0.326,-1.600,1.938,-0.011
0.116,0.824,0.348,-1.690,1.952,0.005
0.098,0.820,0.369,-1.777,1.954,0.026
0.080,0.817,0.391,-1.867,1.948,0.050
0.064,0.816,0.410,-1.958,1.928,0.080
0.052,0.817,0.422,-2.019,1.908,0.103
-0.012,0.819,0.484,-2.451,1.642,0.334
-0.018,0.819,0.497,-2.545,1.564,0.399
-0.023,0.820,0.509,-2.638,1.486,0.469
-0.027,0.819,0.522,-2.727,1.410,0.542
-0.030,0.811,0.533,-2.812,1.342,0.615
-0.032,0.800,0.543,-2.889,1.278,0.691
-0.033,0.789,0.552,-2.962,1.219,0.768
-0.033,0.778,0.563,-3.027,1.164,0.847
-0.029,0.765,0.577,-3.085,1.113,0.926
-0.025,0.750,0.589,-3.135,1.066,1.001

0.273,0.563,1.082,0.896,1.035,0.298
0.269,0.559,1.100,1.005,1.041,0.286
0.265,0.555,1.121,1.117,1.041,0.272
0.264,0.555,1.141,1.235,1.032,0.254
0.265,0.558,1.162,1.353,1.015,0.234
0.263,0.555,1.183,1.477,0.990,0.213
0.258,0.550,1.205,1.604,0.957,0.189
0.256,0.549,1.228,1.734,0.912,0.161
0.257,0.551,1.248,1.868,0.859,0.129
0.256,0.552,1.269,2.008,0.798,0.097
0.251,0.543,1.289,2.152,0.727,0.063
0.247,0.536,1.306,2.300,0.649,0.029
0.248,0.533,1.319,2.401,0.596,0.006
0.257,0.530,1.333,2.557,0.525,-0.024
0.266,0.526,1.347,2.721,0.468,-0.054
0.269,0.521,1.359,2.894,0.425,-0.084
0.274,0.523,1.370,3.073,0.390,-0.114
0.277,0.521,1.380,3.262,0.362,-0.144
0.276,0.516,1.392,3.456,0.336,-0.173
0.269,0.509,1.400,3.655,0.310,-0.203
0.259,0.502,1.407,3.857,0.277,-0.232
0.242,0.496,1.410,4.062,0.236,-0.261
0.221,0.494,1.410,4.270,0.183,-0.293
0.201,0.492,1.407,4.479,0.111,-0.329
0.181,0.488,1.403,4.693,0.017,-0.366
0.160,0.481,1.399,4.911,-0.096,-0.404
0.142,0.473,1.387,5.132,-0.226,-0.441
0.123,0.457,1.368,5.357,-0.363,-0.474
0.103,0.438,1.347,5.587,-0.509,-0.502
0.082,0.421,1.322,5.825,-0.659,-0.529
0.040,0.353,1.162,6.900,-1.237,-0.585
0.039,0.343,1.116,7.157,-1.318,-0.585
0.038,0.330,1.070,7.413,-1.370,-0.580
0.034,0.320,1.020,7.667,-1.396,-0.568
0.033,0.318,0.965,7.915,-1.402,-0.553
0.034,0.318,0.911,8.157,-1.392,-0.535
0.032,0.315,0.849,8.390,-1.366,-0.513
0.031,0.313,0.786,8.611,-1.331,-0.485
0.033,0.314,0.720,8.815,-1.293,-0.452
0.039,0.318,0.652,9.002,-1.257,-0.415
0.040,0.313,0.579,9.170,-1.222,-0.367
0.038,0.311,0.509,9.318,-1.207,-0.313
0.037,0.319,0.439,9.438,-1.219,-0.254
0.048,0.332,0.378,9.522,-1.246,-0.195
0.047,0.339,0.304,9.570,-1.288,-0.134
0.059,0.361,0.231,9.585,-1.357,-0.074
0.078,0.389,0.154,9.565,-1.436,-0.018
0.096,0.417,0.071,9.513,-1.510,0.032
0.114,0.440,-0.017,9.435,-1.568,0.074
0.136,0.458,-0.105,9.335,-1.602,0.110
0.147,0.466,-0.197,9.215,-1.605,0.137
0.166,0.492,-0.286,9.074,-1.581,0.158
0.191,0.503,-0.372,8.912,-1.534,0.178
0.189,0.519,-0.458,8.729,-1.504,0.199
0.209,0.620,-0.761,7.601,-1.628,0.179
0.187,0.616,-0.828,7.279,-1.740,0.166
0.188,0.626,-0.888,6.938,-1.873,0.142
0.188,0.634,-0.946,6.580,-2.007,0.107
0.195,0.647,-1.011,6.214,-2.133,0.066
0.198,0.658,-1.073,5.844,-2.250,0.022
0.202,0.664,-1.134,5.474,-2.346,-0.022
0.210,0.674,-1.191,5.108,-2.406,-0.069
0.218,0.680,-1.242,4.745,-2.425,-0.113
0.222,0.690,-1.291,4.390,-2.408,-0.152
0.223,0.701,-1.337,4.042,-2.352,-0.188
0.226,0.717,-1.376,3.705,-2.257,-0.218
0.219,0.733,-1.412,3.377,-2.136,-0.237
0.203,0.731,-1.443,3.058,-1.977,-0.250
0.191,0.729,-1.468,2.749,-1.797,-0.255
0.183,0.732,-1.484,2.447,-1.601,-0.256
0.174,0.737,-1.493,2.148,-1.382,-0.254
0.167,0.745,-1.501,1.853,-1.153,-0.249
0.160,0.754,-1.501,1.561,-0.921,-0.241
0.149,0.761,-1.496,1.275,-0.694,-0.228
0.095,0.788,-1.403,-0.034,0.149,-0.135
0.086,0.792,-1.377,-0.303,0.282,-0.114
0.080,0.794,-1.347,-0.565,0.402,-0.092
0.079,0.796,-1.318,-0.817,0.513,-0.070
0.081,0.796,-1.286,-1.058,0.613,-0.045
0.086,0.794,-1.256,-1.286,0.707,-0.019

0.322,0.709,0.884,-1.913,1.038,0.510
0.315,0.695,0.891,-1.800,0.972,0.466
0.304,0.682,0.902,-1.691,0.901,0.421
0.308,0.692,0.911,-1.592,0.854,0.374
0.318,0.713,0.919,-1.492,0.802,0.332
0.320,0.724,0.927,-1.392,0.738,0.296
0.314,0.727,0.933,-1.290,0.652,0.264
0.302,0.721,0.939,-1.187,0.549,0.231
0.291,0.712,0.942,-1.083,0.436,0.196
0.282,0.703,0.946,-0.981,0.317,0.161
0.277,0.693,0.944,-0.878,0.200,0.129
0.275,0.685,0.941,-0.774,0.087,0.101
0.274,0.681,0.936,-0.668,-0.018,0.078
0.275,0.676,0.931,-0.562,-0.114,0.060
0.278,0.675,0.924,-0.457,-0.200,0.043
0.284,0.678,0.918,-0.351,-0.268,0.030
0.290,0.681,0.909,-0.248,-0.319,0.019
0.295,0.685,0.901,-0.147,-0.351,0.010
0.299,0.688,0.888,-0.049,-0.365,0.003
0.300,0.689,0.879,0.046,-0.365,-0.002
0.299,0.689,0.870,0.136,-0.351,-0.006
0.299,0.688,0.861,0.221,-0.325,-0.010
0.297,0.688,0.850,0.302,-0.292,-0.015
0.295,0.690,0.841,0.378,-0.254,-0.019
0.291,0.692,0.832,0.447,-0.214,-0.024
0.269,0.709,0.797,0.696,-0.085,-0.049
0.263,0.711,0.786,0.742,-0.078,-0.054
0.255,0.714,0.776,0.785,-0.077,-0.059
0.248,0.717,0.763,0.826,-0.082,-0.063
0.243,0.719,0.751,0.863,-0.090,-0.067
0.241,0.724,0.740,0.898,-0.097,-0.070
0.240,0.728,0.734,0.928,-0.100,-0.072
0.239,0.733,0.723,0.955,-0.100,-0.071
0.238,0.735,0.713,0.977,-0.100,-0.068
0.237,0.738,0.702,0.995,-0.099,-0.063
0.236,0.741,0.692,1.008,-0.101,-0.056
0.234,0.746,0.684,1.017,-0.105,-0.050
0.232,0.753,0.673,1.023,-0.117,-0.043
0.231,0.759,0.663,1.023,-0.133,-0.037
0.229,0.766,0.654,1.020,-0.152,-0.032
0.229,0.771,0.647,1.013,-0.177,-0.028
0.229,0.775,0.637,1.003,-0.204,-0.023
0.230,0.778,0.627,0.989,-0.233,-0.019
0.233,0.780,0.616,0.974,-0.262,-0.013
0.237,0.782,0.604,0.956,-0.292,-0.005
0.242,0.783,0.593,0.938,-0.318,0.002
0.246,0.784,0.582,0.919,-0.344,0.011
0.251,0.785,0.569,0.900,-0.367,0.019
0.256,0.783,0.559,0.882,-0.385,0.027
0.272,0.786,0.519,0.807,-0.415,0.048
0.277,0.788,0.511,0.790,-0.410,0.049
0.278,0.790,0.504,0.773,-0.400,0.048
0.282,0.794,0.498,0.757,-0.388,0.045
0.284,0.797,0.490,0.741,-0.372,0.040
0.285,0.799,0.485,0.725,-0.354,0.033
0.286,0.800,0.481,0.710,-0.335,0.028
0.287,0.800,0.477,0.695,-0.314,0.021
0.287,0.799,0.473,0.679,-0.294,0.016
0.288,0.799,0.468,0.663,-0.272,0.010
0.289,0.799,0.464,0.647,-0.251,0.005
0.288,0.798,0.459,0.630,-0.232,0.002
0.288,0.798,0.454,0.614,-0.214,0.000
0.288,0.799,0.450,0.598,-0.199,-0.002
0.289,0.803,0.446,0.582,-0.185,-0.004
0.290,0.805,0.445,0.566,-0.173,-0.006
0.292,0.810,0.442,0.552,-0.165,-0.007
0.294,0.812,0.440,0.540,-0.158,-0.010
0.295,0.815,0.436,0.527,-0.151,-0.012
0.297,0.815,0.435,0.516,-0.146,-0.014
0.298,0.815,0.434,0.507,-0.138,-0.017
0.298,0.816,0.435,0.499,-0.132,-0.020
0.299,0.818,0.432,0.491,-0.128,-0.023
0.298,0.819,0.431,0.483,-0.123,-0.028
0.295,0.820,0.429,0.476,-0.121,-0.033
0.292,0.821,0.425,0.468,-0.121,-0.038
0.288,0.836,0.419,0.429,-0.159,-0.068
0.287,0.838,0.417,0.417,-0.171,-0.074
0.287,0.838,0.417,0.404,-0.184,-0.080
0.286,0.838,0.418,0.390,-0.194,-0.084
0.285,0.839,0.416,0.375,-0.201,-0.088

0.283,1.020,0.676,0.082,1.605,-0.012
0.283,1.020,0.741,0.196,1.620,0.000
0.279,1.015,0.807,0.325,1.601,0.012
0.274,1.004,0.872,0.469,1.543,0.024
0.269,0.993,0.915,0.579,1.485,0.032
0.257,0.969,0.976,0.764,1.366,0.042
0.237,0.941,1.032,0.975,1.210,0.046
0.215,0.911,1.084,1.211,1.012,0.044
0.191,0.879,1.131,1.472,0.775,0.035
0.169,0.850,1.167,1.753,0.507,0.019
0.147,0.820,1.196,2.051,0.209,-0.001
0.128,0.797,1.214,2.364,-0.111,-0.028
0.113,0.778,1.216,2.687,-0.443,-0.057
0.102,0.763,1.204,3.019,-0.776,-0.089
0.094,0.752,1.181,3.354,-1.098,-0.122
0.092,0.744,1.143,3.690,-1.401,-0.155
0.093,0.735,1.095,4.021,-1.667,-0.185
0.093,0.725,1.038,4.344,-1.899,-0.211
0.093,0.716,0.968,4.653,-2.097,-0.231
0.093,0.711,0.895,4.945,-2.260,-0.245
0.093,0.708,0.815,5.217,-2.395,-0.253
0.093,0.707,0.732,5.466,-2.500,-0.255
0.094,0.709,0.646,5.687,-2.579,-0.251
0.094,0.712,0.561,5.881,-2.635,-0.244
0.095,0.714,0.471,6.046,-2.670,-0.234
0.099,0.714,0.380,6.184,-2.683,-0.221
0.101,0.713,0.287,6.297,-2.672,-0.209
0.099,0.705,-0.083,6.498,-2.492,-0.126
0.096,0.710,-0.166,6.474,-2.459,-0.107
0.095,0.722,-0.245,6.422,-2.440,-0.090
0.092,0.733,-0.326,6.342,-2.431,-0.078
0.094,0.746,-0.407,6.238,-2.434,-0.066
0.093,0.754,-0.490,6.110,-2.441,-0.057
0.096,0.766,-0.576,5.959,-2.455,-0.052
0.099,0.772,-0.660,5.785,-2.469,-0.047
0.095,0.770,-0.744,5.589,-2.479,-0.042
0.095,0.778,-0.829,5.374,-2.492,-0.036
0.097,0.788,-0.910,5.141,-2.506,-0.030
0.099,0.796,-0.993,4.889,-2.507,-0.021
0.101,0.802,-1.075,4.619,-2.493,-0.010
0.104,0.809,-1.155,4.332,-2.462,0.005
0.107,0.817,-1.230,4.032,-2.405,0.022
0.110,0.821,-1.300,3.719,-2.326,0.040
0.110,0.821,-1.366,3.397,-2.222,0.062
0.110,0.819,-1.422,3.066,-2.097,0.084
0.107,0.815,-1.471,2.729,-1.949,0.106
0.102,0.809,-1.511,2.389,-1.787,0.130
0.076,0.774,-1.579,0.912,-1.037,0.220
0.073,0.762,-1.576,0.583,-0.874,0.242
0.070,0.751,-1.564,0.263,-0.719,0.263
0.068,0.736,-1.544,-0.047,-0.573,0.283
0.067,0.721,-1.519,-0.342,-0.432,0.303
0.068,0.705,-1.491,-0.623,-0.299,0.321
0.071,0.689,-1.458,-0.886,-0.170,0.338
0.076,0.674,-1.421,-1.131,-0.049,0.354
0.082,0.660,-1.382,-1.359,0.065,0.366
0.089,0.650,-1.337,-1.568,0.173,0.376
0.098,0.640,-1.292,-1.759,0.276,0.381
0.106,0.631,-1.244,-1.932,0.374,0.382
0.114,0.622,-1.195,-2.088,0.468,0.378
0.123,0.616,-1.148,-2.228,0.558,0.368
0.130,0.612,-1.099,-2.353,0.643,0.354
0.136,0.608,-1.051,-2.465,0.720,0.333
0.139,0.605,-1.002,-2.563,0.791,0.308
0.139,0.602,-0.955,-2.650,0.852,0.276
0.139,0.600,-0.907,-2.725,0.905,0.241
0.139,0.601,-0.860,-2.790,0.948,0.200
0.138,0.604,-0.814,-2.845,0.982,0.159
0.134,0.608,-0.774,-2.890,1.009,0.115
0.097,0.658,-0.606,-3.019,0.987,-0.099
0.090,0.673,-0.574,-3.039,0.952,-0.135
0.088,0.692,-0.547,-3.058,0.913,-0.165
0.088,0.714,-0.523,-3.071,0.876,-0.187
0.091,0.735,-0.502,-3.081,0.847,-0.203
0.096,0.757,-0.483,-3.084,0.832,-0.213
0.101,0.771,-0.469,-3.080,0.832,-0.217
0.107,0.788,-0.449,-3.066,0.849,-0.220
0.116,0.799,-0.427,-3.040,0.888,-0.222
0.120,0.806,-0.403,-3.005,0.942,-0.220
0.121,0.810,-0.377,-2.962,1.006,-0.218

-0.075,1.066,0.906,0.482,1.785,-0.018
-0.101,1.076,0.982,0.617,1.854,0.031
-0.118,1.083,1.034,0.714,1.889,0.068
-0.145,1.093,1.113,0.875,1.925,0.132
-0.174,1.092,1.189,1.063,1.935,0.206
-0.200,1.077,1.267,1.290,1.917,0.295
-0.230,1.044,1.346,1.559,1.873,0.400
-0.264,0.992,1.424,1.877,1.797,0.524
-0.304,0.924,1.502,2.242,1.683,0.666
-0.346,0.852,1.577,2.653,1.520,0.825
-0.391,0.779,1.644,3.103,1.297,0.995
-0.433,0.712,1.703,3.588,1.003,1.170
-0.467,0.653,1.751,4.096,0.632,1.339
-0.492,0.599,1.782,4.620,0.193,1.498
-0.505,0.544,1.793,5.153,-0.304,1.639
-0.504,0.486,1.784,5.689,-0.844,1.757
-0.490,0.429,1.754,6.223,-1.402,1.847
-0.467,0.370,1.698,6.749,-1.963,1.912
-0.437,0.308,1.624,7.267,-2.514,1.951
-0.399,0.245,1.527,7.770,-3.036,1.963
-0.357,0.185,1.411,8.256,-3.523,1.955
-0.315,0.127,1.278,8.722,-3.967,1.929
-0.269,0.074,1.130,9.160,-4.367,1.889
-0.221,0.031,0.969,9.566,-4.721,1.840
-0.170,-0.005,0.797,9.937,-5.021,1.780
0.047,-0.069,-0.034,11.019,-5.569,1.448
0.089,-0.061,-0.234,11.132,-5.501,1.354
0.128,-0.045,-0.434,11.189,-5.364,1.255
0.165,-0.018,-0.634,11.192,-5.163,1.156
0.196,0.011,-0.825,11.137,-4.905,1.058
0.222,0.049,-1.004,11.022,-4.609,0.963
0.239,0.091,-1.173,10.844,-4.292,0.877
0.251,0.132,-1.325,10.607,-3.979,0.800
0.254,0.169,-1.464,10.310,-3.685,0.734
0.251,0.203,-1.588,9.956,-3.432,0.678
0.240,0.238,-1.706,9.544,-3.225,0.627
0.235,0.277,-1.810,9.081,-3.062,0.576
0.238,0.322,-1.914,8.568,-2.929,0.526
0.246,0.369,-2.009,8.015,-2.823,0.477
0.259,0.414,-2.096,7.427,-2.730,0.424
0.269,0.447,-2.177,6.814,-2.629,0.367
0.278,0.476,-2.247,6.180,-2.513,0.303
0.287,0.500,-2.305,5.532,-2.381,0.236
0.289,0.523,-2.351,4.879,-2.234,0.164
0.295,0.542,-2.375,4.224,-2.052,0.083
0.250,0.565,-2.348,1.408,-1.264,-0.248
0.235,0.561,-2.310,0.784,-1.122,-0.318
0.221,0.554,-2.264,0.182,-0.989,-0.381
0.208,0.546,-2.210,-0.396,-0.861,-0.436
0.195,0.536,-2.149,-0.944,-0.735,-0.482
0.183,0.528,-2.080,-1.461,-0.607,-0.520
0.163,0.518,-1.980,-2.102,-0.432,-0.558
0.145,0.509,-1.900,-2.543,-0.300,-0.580
0.126,0.498,-1.818,-2.953,-0.171,-0.597
0.105,0.487,-1.730,-3.330,-0.051,-0.611
0.084,0.477,-1.643,-3.674,0.060,-0.623
0.065,0.466,-1.558,-3.987,0.160,-0.632
0.046,0.457,-1.475,-4.269,0.247,-0.639
0.027,0.449,-1.393,-4.522,0.322,-0.644
0.007,0.441,-1.317,-4.745,0.386,-0.646
-0.012,0.435,-1.246,-4.940,0.440,-0.646
-0.031,0.432,-1.176,-5.110,0.482,-0.644
-0.049,0.431,-1.111,-5.256,0.515,-0.639
-0.121,0.451,-0.870,-5.677,0.578,-0.582
-0.132,0.467,-0.826,-5.738,0.578,-0.562
-0.139,0.484,-0.784,-5.789,0.579,-0.536
-0.139,0.502,-0.743,-5.830,0.585,-0.508
-0.140,0.521,-0.711,-5.859,0.603,-0.476
-0.134,0.539,-0.678,-5.875,0.634,-0.442
-0.130,0.558,-0.647,-5.875,0.686,-0.409
-0.117,0.569,-0.610,-5.857,0.761,-0.376
-0.111,0.577,-0.576,-5.826,0.860,-0.344
-0.102,0.579,-0.536,-5.779,0.974,-0.313
-0.102,0.580,-0.495,-5.723,1.098,-0.282
-0.100,0.587,-0.451,-5.658,1.212,-0.253
-0.101,0.591,-0.408,-5.588,1.314,-0.223
-0.106,0.605,-0.364,-5.514,1.394,-0.197
-0.105,0.617,-0.320,-5.437,1.445,-0.170
-0.105,0.629,-0.276,-5.359,1.476,-0.145
-0.104,0.648,-0.235,-5.281,1.487,-0.123

-0.136,1.028,0.873,-0.169,1.485,-0.057
-0.165,1.042,0.933,-0.072,1.552,-0.027
-0.192,1.051,0.995,0.043,1.598,0.011
-0.226,1.049,1.055,0.180,1.620,0.056
-0.263,1.034,1.118,0.344,1.608,0.114
-0.302,1.009,1.181,0.535,1.568,0.186
-0.343,0.983,1.244,0.757,1.495,0.271
-0.381,0.959,1.305,1.011,1.388,0.372
-0.421,0.929,1.363,1.305,1.237,0.486
-0.468,0.893,1.417,1.634,1.039,0.611
-0.512,0.854,1.468,1.992,0.794,0.744
-0.549,0.815,1.514,2.376,0.513,0.883
-0.575,0.781,1.552,2.784,0.206,1.025
-0.589,0.754,1.580,3.207,-0.107,1.169
-0.592,0.732,1.601,3.643,-0.419,1.312
-0.588,0.719,1.609,3.938,-0.620,1.404
-0.578,0.700,1.609,4.382,-0.901,1.537
-0.563,0.673,1.602,4.826,-1.153,1.663
-0.548,0.642,1.585,5.265,-1.380,1.783
-0.532,0.609,1.561,5.696,-1.591,1.893
-0.514,0.574,1.529,6.115,-1.805,1.998
-0.491,0.533,1.485,6.525,-2.021,2.095
-0.467,0.488,1.429,6.922,-2.244,2.184
-0.442,0.436,1.363,7.309,-2.481,2.265
-0.413,0.380,1.284,7.686,-2.733,2.335
-0.251,0.155,0.791,9.231,-4.017,2.480
-0.213,0.127,0.660,9.496,-4.290,2.460
-0.175,0.105,0.523,9.730,-4.553,2.423
-0.139,0.087,0.381,9.927,-4.800,2.372
-0.104,0.075,0.237,10.087,-5.027,2.305
-0.066,0.071,0.087,10.207,-5.221,2.221
-0.024,0.071,-0.067,10.287,-5.367,2.124
0.023,0.079,-0.225,10.328,-5.450,2.015
0.071,0.095,-0.385,10.329,-5.462,1.893
0.120,0.121,-0.549,10.292,-5.392,1.769
0.169,0.152,-0.710,10.213,-5.248,1.640
0.199,0.174,-0.815,10.137,-5.111,1.555
0.239,0.209,-0.966,9.985,-4.858,1.429
0.270,0.246,-1.109,9.784,-4.563,1.309
0.292,0.287,-1.241,9.533,-4.248,1.196
0.304,0.327,-1.362,9.231,-3.939,1.095
0.308,0.364,-1.471,8.878,-3.651,1.005
0.305,0.398,-1.572,8.474,-3.400,0.925
0.299,0.425,-1.665,8.024,-3.188,0.855
0.291,0.449,-1.750,7.536,-3.018,0.794
0.282,0.470,-1.827,7.014,-2.866,0.732
0.249,0.532,-2.081,4.367,-2.276,0.460
0.247,0.534,-2.106,3.800,-2.127,0.372
0.256,0.534,-2.119,3.243,-1.951,0.285
0.264,0.538,-2.126,2.696,-1.759,0.208
0.265,0.542,-2.121,2.159,-1.563,0.137
0.257,0.542,-2.103,1.635,-1.374,0.073
0.242,0.538,-2.080,1.121,-1.193,0.012
0.225,0.534,-2.050,0.622,-1.024,-0.052
0.209,0.530,-2.011,0.136,-0.862,-0.117
0.199,0.525,-1.965,-0.329,-0.702,-0.184
0.195,0.522,-1.918,-0.770,-0.537,-0.252
0.193,0.520,-1.866,-1.189,-0.364,-0.318
0.188,0.514,-1.809,-1.580,-0.184,-0.383
0.180,0.504,-1.747,-1.946,0.000,-0.447
0.170,0.492,-1.681,-2.286,0.183,-0.508
0.156,0.479,-1.612,-2.599,0.359,-0.566
0.141,0.470,-1.543,-2.887,0.521,-0.624
0.127,0.464,-1.473,-3.151,0.669,-0.679
0.112,0.460,-1.403,-3.391,0.799,-0.732
0.098,0.459,-1.336,-3.609,0.910,-0.783
0.043,0.463,-1.069,-4.310,1.249,-0.964
0.033,0.470,-1.012,-4.421,1.305,-0.996
0.023,0.476,-0.960,-4.513,1.354,-1.025
0.014,0.483,-0.906,-4.589,1.397,-1.050
0.005,0.491,-0.855,-4.649,1.439,-1.074
-0.004,0.499,-0.805,-4.692,1.479,-1.096
-0.013,0.510,-0.754,-4.722,1.521,-1.116
-0.021,0.522,-0.706,-4.739,1.562,-1.136
-0.030,0.534,-0.661,-4.744,1.601,-1.151
-0.039,0.547,-0.615,-4.739,1.635,-1.164
-0.051,0.560,-0.570,-4.726,1.663,-1.175
-0.063,0.573,-0.526,-4.705,1.685,-1.182
-0.077,0.589,-0.483,-4.678,1.697,-1.189
-0.088,0.606,-0.442,-4.646,1.700,-1.191

0.024,0.991,0.927,0.366,0.055,0.021
0.017,0.985,0.979,0.466,0.072,0.026
0.004,0.975,1.035,0.591,0.084,0.030
-0.016,0.955,1.087,0.742,0.080,0.032
-0.038,0.925,1.138,0.919,0.055,0.036
-0.084,0.858,1.179,1.126,-0.003,0.046
-0.108,0.824,1.239,1.348,-0.101,0.060
-0.107,0.824,1.276,1.589,-0.202,0.081
-0.101,0.826,1.312,1.870,-0.330,0.113
-0.106,0.809,1.353,2.184,-0.469,0.149
-0.124,0.772,1.385,2.522,-0.613,0.181
-0.142,0.730,1.415,2.882,-0.759,0.208
-0.156,0.696,1.440,3.257,-0.905,0.230
-0.165,0.673,1.460,3.639,-1.053,0.247
-0.172,0.659,1.472,4.029,-1.206,0.262
-0.177,0.653,1.478,4.424,-1.368,0.274
-0.180,0.644,1.475,4.821,-1.538,0.283
-0.185,0.628,1.461,5.218,-1.709,0.293
-0.190,0.603,1.438,5.613,-1.885,0.302
-0.198,0.573,1.404,6.003,-2.060,0.311
-0.207,0.541,1.357,6.390,-2.235,0.318
-0.216,0.508,1.300,6.772,-2.407,0.324
-0.223,0.475,1.230,7.142,-2.578,0.328
-0.226,0.446,1.150,7.500,-2.745,0.331
-0.207,0.375,0.677,8.811,-3.463,0.347
-0.193,0.373,0.550,9.040,-3.609,0.349
-0.184,0.360,0.411,9.242,-3.736,0.348
-0.175,0.345,0.278,9.414,-3.845,0.343
-0.169,0.327,0.139,9.550,-3.927,0.331
-0.165,0.312,-0.003,9.649,-3.983,0.315
-0.159,0.300,-0.148,9.710,-4.011,0.294
-0.151,0.297,-0.292,9.734,-4.007,0.270
-0.139,0.300,-0.435,9.723,-3.967,0.247
-0.125,0.309,-0.576,9.674,-3.892,0.225
-0.112,0.322,-0.712,9.589,-3.782,0.205
-0.101,0.338,-0.842,9.466,-3.643,0.189
-0.091,0.353,-0.970,9.306,-3.477,0.178
-0.081,0.371,-1.090,9.108,-3.293,0.170
-0.071,0.391,-1.202,8.875,-3.096,0.166
-0.065,0.408,-1.307,8.610,-2.891,0.165
-0.064,0.423,-1.402,8.313,-2.688,0.166
-0.063,0.435,-1.487,7.987,-2.493,0.168
-0.063,0.449,-1.563,7.632,-2.318,0.171
-0.063,0.462,-1.631,7.248,-2.158,0.175
-0.061,0.521,-1.827,5.325,-1.705,0.197
-0.057,0.535,-1.856,4.841,-1.631,0.196
-0.056,0.545,-1.880,4.353,-1.554,0.190
-0.055,0.552,-1.899,3.865,-1.469,0.181
-0.057,0.554,-1.910,3.383,-1.376,0.168
-0.059,0.552,-1.917,2.909,-1.274,0.151
-0.061,0.549,-1.918,2.447,-1.160,0.132
-0.061,0.545,-1.912,1.999,-1.034,0.113
-0.062,0.541,-1.900,1.563,-0.900,0.093
-0.063,0.538,-1.880,1.144,-0.761,0.076
-0.062,0.534,-1.856,0.738,-0.617,0.060
-0.062,0.529,-1.825,0.346,-0.475,0.046
-0.066,0.524,-1.790,-0.031,-0.338,0.036
-0.069,0.520,-1.750,-0.394,-0.214,0.028
-0.071,0.517,-1.704,-0.740,-0.099,0.020
-0.070,0.514,-1.659,-1.071,0.007,0.012
-0.070,0.511,-1.610,-1.383,0.106,0.002
-0.067,0.510,-1.559,-1.677,0.200,-0.007
-0.065,0.509,-1.507,-1.953,0.289,-0.019
-0.060,0.499,-1.293,-2.905,0.695,-0.103
-0.061,0.497,-1.244,-3.072,0.792,-0.129
-0.063,0.498,-1.194,-3.221,0.886,-0.155
-0.064,0.497,-1.145,-3.352,0.978,-0.181
-0.066,0.500,-1.098,-3.469,1.060,-0.205
-0.069,0.504,-1.054,-3.576,1.131,-0.229
-0.072,0.510,-1.012,-3.672,1.192,-0.250
-0.077,0.517,-0.970,-3.759,1.241,-0.270
-0.080,0.527,-0.929,-3.840,1.280,-0.289
-0.081,0.540,-0.890,-3.915,1.312,-0.308
-0.081,0.553,-0.855,-3.987,1.339,-0.325
-0.080,0.569,-0.821,-4.054,1.363,-0.342
-0.080,0.582,-0.787,-4.116,1.387,-0.357
-0.084,0.593,-0.753,-4.177,1.411,-0.371
-0.087,0.603,-0.724,-4.236,1.432,-0.386
-0.090,0.615,-0.693,-4.290,1.453,-0.399
-0.091,0.629,-0.660,-4.340,1.471,-0.411

-0.006,1.100,0.842,0.097,1.232,-0.022
-0.046,1.057,0.886,0.152,1.319,-0.005
-0.090,1.024,0.964,0.215,1.358,0.022
-0.095,1.042,1.031,0.267,1.404,0.064
-0.098,1.069,1.085,0.351,1.432,0.122
-0.116,1.065,1.150,0.480,1.422,0.199
-0.145,1.037,1.218,0.645,1.379,0.291
-0.172,1.004,1.279,0.854,1.312,0.395
-0.205,0.958,1.340,1.122,1.208,0.509
-0.236,0.898,1.405,1.444,1.062,0.632
-0.261,0.840,1.469,1.812,0.892,0.760
-0.277,0.794,1.532,2.221,0.698,0.890
-0.283,0.758,1.585,2.666,0.487,1.020
-0.296,0.719,1.631,3.138,0.258,1.144
-0.316,0.680,1.669,3.628,0.003,1.254
-0.339,0.641,1.698,4.123,-0.283,1.344
-0.358,0.597,1.711,4.616,-0.603,1.414
-0.370,0.552,1.703,5.099,-0.948,1.470
-0.371,0.519,1.672,5.571,-1.320,1.507
-0.365,0.468,1.622,6.032,-1.695,1.531
-0.349,0.430,1.549,6.480,-2.069,1.547
-0.324,0.395,1.458,6.915,-2.429,1.558
-0.293,0.370,1.346,7.334,-2.757,1.564
-0.259,0.349,1.220,7.734,-3.045,1.568
-0.220,0.331,1.079,8.110,-3.283,1.568
-0.184,0.313,0.927,8.462,-3.468,1.562
-0.066,0.231,0.224,9.593,-3.826,1.547
-0.046,0.218,0.066,9.750,-3.831,1.541
-0.026,0.208,-0.085,9.869,-3.813,1.530
-0.004,0.202,-0.234,9.953,-3.768,1.515
0.016,0.190,-0.369,10.007,-3.706,1.492
0.035,0.176,-0.500,10.026,-3.611,1.461
0.055,0.174,-0.622,10.008,-3.487,1.424
0.075,0.181,-0.739,9.953,-3.337,1.380
0.095,0.194,-0.848,9.860,-3.168,1.336
0.112,0.216,-0.952,9.727,-2.990,1.288
0.129,0.237,-1.053,9.557,-2.806,1.238
0.145,0.255,-1.150,9.348,-2.619,1.186
0.159,0.270,-1.240,9.107,-2.437,1.136
0.169,0.286,-1.323,8.827,-2.269,1.088
0.177,0.301,-1.400,8.515,-2.109,1.041
0.185,0.321,-1.472,8.169,-1.974,0.997
0.187,0.337,-1.536,7.791,-1.871,0.958
0.182,0.348,-1.595,7.384,-1.792,0.917
0.177,0.359,-1.647,6.953,-1.745,0.881
0.170,0.373,-1.692,6.498,-1.736,0.848
0.163,0.389,-1.735,6.028,-1.753,0.815
0.163,0.406,-1.774,5.545,-1.792,0.785
0.201,0.593,-1.867,3.436,-1.913,0.626
0.203,0.534,-1.868,2.965,-1.870,0.582
0.187,0.478,-1.870,2.508,-1.832,0.549
0.159,0.421,-1.860,2.067,-1.782,0.513
0.136,0.384,-1.842,1.634,-1.695,0.465
0.129,0.382,-1.824,1.210,-1.574,0.409
0.136,0.410,-1.812,0.801,-1.435,0.351
0.152,0.453,-1.800,0.409,-1.295,0.299
0.167,0.490,-1.786,0.031,-1.156,0.252
0.177,0.509,-1.765,-0.332,-1.016,0.213
0.176,0.510,-1.740,-0.682,-0.876,0.177
0.168,0.503,-1.709,-1.020,-0.735,0.142
0.158,0.496,-1.673,-1.347,-0.602,0.105
0.149,0.491,-1.633,-1.660,-0.475,0.067
0.142,0.494,-1.591,-1.960,-0.357,0.028
0.138,0.495,-1.544,-2.247,-0.248,-0.014
0.136,0.505,-1.497,-2.521,-0.153,-0.057
0.135,0.517,-1.446,-2.780,-0.070,-0.098
0.133,0.528,-1.393,-3.023,0.007,-0.138
0.129,0.538,-1.343,-3.254,0.081,-0.176
0.097,0.560,-1.116,-4.097,0.271,-0.327
0.089,0.565,-1.065,-4.260,0.278,-0.361
0.092,0.566,-1.018,-4.408,0.294,-0.398
0.097,0.569,-0.975,-4.538,0.319,-0.430
0.102,0.575,-0.932,-4.647,0.353,-0.459
0.105,0.581,-0.889,-4.737,0.396,-0.483
0.101,0.585,-0.844,-4.811,0.444,-0.507
0.095,0.588,-0.800,-4.871,0.493,-0.531
0.085,0.592,-0.754,-4.918,0.526,-0.557
0.074,0.602,-0.708,-4.957,0.549,-0.584
0.080,0.612,-0.666,-4.985,0.595,-0.619
0.090,0.622,-0.631,-4.993,0.658,-0.652

-0.070,1.081,0.830,0.484,1.106,0.134
-0.085,1.075,0.874,0.629,1.154,0.202
-0.103,1.057,0.916,0.789,1.184,0.272
-0.123,1.036,0.956,0.967,1.191,0.343
-0.142,1.005,0.997,1.171,1.173,0.411
-0.159,0.971,1.038,1.396,1.136,0.480
-0.173,0.944,1.075,1.639,1.091,0.547
-0.184,0.923,1.112,1.899,1.032,0.616
-0.195,0.904,1.150,2.175,0.946,0.684
-0.201,0.890,1.184,2.465,0.830,0.753
-0.206,0.877,1.211,2.768,0.686,0.824
-0.209,0.854,1.229,3.088,0.510,0.890
-0.211,0.818,1.240,3.423,0.311,0.954
-0.212,0.777,1.246,3.771,0.092,1.010
-0.209,0.734,1.240,4.130,-0.142,1.060
-0.204,0.691,1.226,4.503,-0.381,1.103
-0.195,0.652,1.205,4.883,-0.624,1.134
-0.181,0.616,1.177,5.269,-0.867,1.160
-0.168,0.578,1.140,5.655,-1.105,1.178
-0.155,0.531,1.095,6.042,-1.336,1.189
-0.143,0.484,1.040,6.422,-1.562,1.193
-0.128,0.439,0.977,6.793,-1.785,1.190
-0.118,0.409,0.932,7.036,-1.929,1.184
-0.102,0.366,0.857,7.389,-2.143,1.173
-0.086,0.322,0.776,7.727,-2.351,1.156
-0.033,0.127,0.325,9.050,-3.183,0.994
-0.025,0.091,0.218,9.267,-3.325,0.937
-0.017,0.061,0.105,9.454,-3.448,0.874
-0.002,0.041,-0.015,9.609,-3.545,0.806
0.017,0.029,-0.140,9.733,-3.607,0.734
0.040,0.026,-0.265,9.827,-3.627,0.663
0.063,0.027,-0.394,9.891,-3.600,0.591
0.087,0.033,-0.524,9.928,-3.523,0.519
0.109,0.043,-0.652,9.936,-3.396,0.451
0.124,0.055,-0.778,9.914,-3.220,0.386
0.132,0.065,-0.856,9.885,-3.082,0.347
0.140,0.080,-0.969,9.813,-2.849,0.291
0.140,0.094,-1.075,9.710,-2.597,0.242
0.132,0.110,-1.169,9.576,-2.344,0.198
0.119,0.123,-1.258,9.409,-2.107,0.162
0.103,0.135,-1.337,9.210,-1.901,0.132
0.085,0.145,-1.407,8.976,-1.724,0.107
0.064,0.156,-1.472,8.711,-1.601,0.092
0.050,0.172,-1.533,8.416,-1.506,0.078
0.036,0.195,-1.593,8.090,-1.440,0.068
0.031,0.224,-1.649,7.741,-1.394,0.057
0.032,0.253,-1.705,7.371,-1.349,0.048
0.047,0.358,-1.900,5.573,-1.126,0.018
0.050,0.376,-1.932,5.126,-1.058,0.005
0.052,0.392,-1.958,4.675,-0.985,-0.009
0.050,0.402,-1.979,4.221,-0.916,-0.024
0.044,0.406,-1.990,3.765,-0.849,-0.045
0.046,0.410,-1.996,3.310,-0.776,-0.069
0.053,0.415,-1.995,2.855,-0.697,-0.093
0.060,0.422,-1.991,2.403,-0.622,-0.107
0.064,0.427,-1.980,1.955,-0.548,-0.117
0.065,0.432,-1.967,1.510,-0.476,-0.122
0.062,0.435,-1.948,1.072,-0.412,-0.126
0.053,0.436,-1.923,0.640,-0.359,-0.131
0.043,0.440,-1.892,0.217,-0.314,-0.138
0.037,0.445,-1.856,-0.196,-0.274,-0.150
0.033,0.451,-1.819,-0.596,-0.236,-0.166
0.030,0.458,-1.779,-0.981,-0.197,-0.185
0.029,0.466,-1.735,-1.349,-0.156,-0.206
0.027,0.473,-1.686,-1.699,-0.115,-0.228
0.024,0.479,-1.637,-2.031,-0.071,-0.248
-0.012,0.489,-1.400,-3.353,0.074,-0.338
-0.021,0.488,-1.351,-3.593,0.085,-0.352
-0.031,0.489,-1.299,-3.816,0.086,-0.363
-0.040,0.492,-1.253,-4.026,0.082,-0.369
-0.048,0.498,-1.208,-4.223,0.074,-0.371
-0.057,0.500,-1.166,-4.404,0.067,-0.369
-0.066,0.506,-1.125,-4.572,0.056,-0.362
-0.077,0.507,-1.083,-4.726,0.046,-0.352
-0.086,0.511,-1.045,-4.870,0.031,-0.339
-0.091,0.516,-1.008,-5.004,0.014,-0.321
-0.101,0.526,-0.972,-5.126,-0.003,-0.298
-0.110,0.533,-0.937,-5.241,-0.020,-0.271
-0.123,0.545,-0.904,-5.348,-0.040,-0.243
-0.132,0.553,-0.871,-5.448,-0.063,-0.211

0.032,1.088,0.838,0.005,0.957,-0.009
0.019,1.096,0.895,0.042,1.021,-0.010
0.004,1.090,0.950,0.095,1.075,-0.006
-0.013,1.070,1.005,0.172,1.116,0.000
-0.032,1.040,1.060,0.280,1.144,0.017
-0.054,0.999,1.108,0.424,1.157,0.043
-0.078,0.955,1.155,0.607,1.155,0.078
-0.103,0.913,1.202,0.831,1.134,0.122
-0.140,0.860,1.242,1.099,1.092,0.177
-0.170,0.827,1.298,1.404,1.004,0.243
-0.188,0.813,1.345,1.736,0.896,0.315
-0.207,0.800,1.380,2.106,0.756,0.394
-0.230,0.771,1.415,2.514,0.570,0.477
-0.255,0.718,1.443,2.948,0.354,0.559
-0.279,0.659,1.466,3.399,0.113,0.640
-0.293,0.609,1.478,3.857,-0.149,0.717
-0.295,0.573,1.483,4.314,-0.426,0.792
-0.287,0.550,1.473,4.766,-0.711,0.863
-0.276,0.536,1.453,5.205,-1.001,0.926
-0.259,0.522,1.421,5.629,-1.297,0.980
-0.241,0.502,1.376,6.032,-1.589,1.023
-0.221,0.475,1.317,6.415,-1.880,1.057
-0.197,0.442,1.246,6.776,-2.164,1.080
-0.172,0.410,1.162,7.115,-2.436,1.095
-0.142,0.382,1.068,7.434,-2.690,1.100
-0.110,0.355,0.962,7.733,-2.914,1.096
-0.005,0.262,0.422,8.808,-3.550,0.968
0.009,0.243,0.282,8.993,-3.623,0.922
0.024,0.231,0.137,9.153,-3.668,0.872
0.035,0.222,-0.015,9.285,-3.683,0.818
0.049,0.216,-0.168,9.386,-3.661,0.765
0.061,0.212,-0.322,9.455,-3.601,0.714
0.072,0.209,-0.474,9.488,-3.503,0.667
0.083,0.209,-0.623,9.482,-3.368,0.625
0.096,0.218,-0.769,9.438,-3.202,0.589
0.104,0.223,-0.914,9.359,-3.010,0.559
0.118,0.237,-1.046,9.239,-2.791,0.534
0.130,0.259,-1.173,9.071,-2.551,0.515
0.139,0.289,-1.295,8.861,-2.314,0.501
0.148,0.323,-1.407,8.601,-2.083,0.490
0.151,0.358,-1.510,8.296,-1.872,0.479
0.151,0.388,-1.601,7.944,-1.691,0.467
0.152,0.416,-1.683,7.550,-1.544,0.454
0.151,0.439,-1.759,7.119,-1.429,0.438
0.150,0.461,-1.827,6.651,-1.344,0.416
0.152,0.482,-1.887,6.157,-1.285,0.388
0.157,0.501,-1.938,5.638,-1.238,0.353
0.164,0.519,-1.982,5.103,-1.192,0.314
0.169,0.539,-2.018,4.555,-1.143,0.268
0.177,0.589,-2.055,2.140,-0.933,0.014
0.174,0.592,-2.037,1.594,-0.884,-0.054
0.170,0.596,-2.014,1.064,-0.828,-0.126
0.168,0.598,-1.986,0.553,-0.762,-0.199
0.167,0.600,-1.949,0.066,-0.682,-0.271
0.167,0.599,-1.907,-0.395,-0.584,-0.344
0.167,0.599,-1.857,-0.828,-0.467,-0.412
0.166,0.599,-1.799,-1.231,-0.337,-0.475
0.162,0.598,-1.733,-1.606,-0.200,-0.534
0.156,0.596,-1.661,-1.953,-0.061,-0.587
0.146,0.597,-1.587,-2.273,0.076,-0.634
0.133,0.592,-1.508,-2.568,0.201,-0.677
0.120,0.591,-1.428,-2.836,0.312,-0.716
0.103,0.585,-1.350,-3.080,0.408,-0.751
0.090,0.579,-1.274,-3.301,0.487,-0.784
0.080,0.582,-1.199,-3.499,0.551,-0.811
0.070,0.587,-1.128,-3.675,0.608,-0.831
0.059,0.593,-1.057,-3.829,0.659,-0.846
0.048,0.599,-0.993,-3.962,0.703,-0.856
0.012,0.640,-0.732,-4.334,0.832,-0.848
0.005,0.652,-0.676,-4.376,0.857,-0.838
-0.002,0.664,-0.624,-4.405,0.878,-0.824
-0.010,0.675,-0.574,-4.423,0.891,-0.807
-0.019,0.685,-0.524,-4.430,0.897,-0.788
-0.028,0.696,-0.476,-4.429,0.897,-0.767
-0.038,0.709,-0.429,-4.419,0.890,-0.746
-0.047,0.721,-0.386,-4.402,0.876,-0.724
-0.055,0.733,-0.344,-4.376,0.858,-0.698
-0.061,0.745,-0.303,-4.343,0.839,-0.672
-0.067,0.757,-0.265,-4.304,0.819,-0.641
-0.074,0.770,-0.231,-4.259,0.803,-0.606

0.083,1.049,0.857,0.669,0.577,0.192
0.092,1.041,0.901,0.793,0.602,0.234
0.090,1.011,0.949,0.940,0.627,0.279
0.088,0.974,0.999,1.110,0.652,0.324
0.087,0.939,1.054,1.305,0.679,0.367
0.084,0.910,1.106,1.523,0.699,0.408
0.078,0.888,1.160,1.763,0.699,0.446
0.067,0.855,1.210,2.027,0.663,0.479
0.028,0.801,1.258,2.311,0.559,0.512
0.029,0.793,1.307,2.592,0.420,0.537
0.038,0.789,1.330,2.895,0.258,0.558
0.052,0.780,1.357,3.227,0.068,0.573
0.057,0.752,1.373,3.579,-0.130,0.577
0.053,0.701,1.388,3.950,-0.324,0.569
0.043,0.652,1.393,4.331,-0.519,0.549
0.031,0.606,1.393,4.718,-0.729,0.519
0.021,0.576,1.379,5.103,-0.958,0.480
0.019,0.558,1.355,5.484,-1.213,0.436
0.022,0.543,1.317,5.860,-1.479,0.388
0.026,0.520,1.268,6.228,-1.749,0.339
0.028,0.489,1.206,6.588,-2.008,0.289
0.030,0.454,1.134,6.937,-2.246,0.238
0.033,0.420,1.052,7.277,-2.455,0.188
0.037,0.386,0.959,7.604,-2.630,0.139
0.040,0.355,0.859,7.917,-2.768,0.094
0.042,0.332,0.752,8.212,-2.870,0.051
0.043,0.311,0.638,8.485,-2.939,0.011
0.045,0.300,0.561,8.655,-2.966,-0.013
0.049,0.288,0.441,8.888,-2.981,-0.045
0.053,0.275,0.322,9.095,-2.972,-0.070
0.041,0.273,-0.237,9.584,-2.839,-0.135
0.059,0.317,-0.347,9.576,-2.798,-0.128
0.038,0.339,-0.484,9.516,-2.770,-0.096
0.023,0.353,-0.611,9.424,-2.762,-0.057
0.011,0.352,-0.735,9.299,-2.741,-0.019
0.003,0.345,-0.863,9.151,-2.687,0.017
0.002,0.349,-0.983,8.982,-2.583,0.048
0.002,0.368,-1.096,8.794,-2.429,0.070
-0.002,0.388,-1.200,8.584,-2.236,0.087
-0.003,0.406,-1.296,8.355,-2.017,0.097
-0.003,0.424,-1.376,8.105,-1.783,0.100
-0.009,0.438,-1.447,7.834,-1.551,0.103
-0.020,0.451,-1.508,7.538,-1.339,0.107
-0.036,0.460,-1.560,7.217,-1.162,0.112
-0.052,0.463,-1.603,6.874,-1.026,0.115
-0.067,0.466,-1.643,6.510,-0.933,0.120
-0.069,0.488,-1.671,6.131,-0.864,0.121
-0.083,0.513,-1.697,5.727,-0.838,0.133
-0.092,0.520,-1.728,5.307,-0.862,0.151
-0.094,0.534,-1.744,4.881,-0.892,0.171
-0.113,0.531,-1.814,2.934,-1.172,0.341
-0.102,0.529,-1.831,2.493,-1.186,0.392
-0.092,0.533,-1.840,2.067,-1.170,0.444
-0.080,0.537,-1.847,1.653,-1.122,0.497
-0.067,0.541,-1.844,1.250,-1.048,0.547
-0.054,0.541,-1.834,0.862,-0.956,0.595
-0.042,0.537,-1.818,0.484,-0.851,0.637
-0.030,0.531,-1.791,0.119,-0.742,0.677
-0.019,0.526,-1.759,-0.233,-0.635,0.710
-0.008,0.520,-1.719,-0.573,-0.541,0.738
0.005,0.522,-1.675,-0.901,-0.459,0.758
0.017,0.528,-1.623,-1.222,-0.393,0.773
0.029,0.536,-1.569,-1.534,-0.354,0.781
0.044,0.549,-1.516,-1.837,-0.339,0.783
0.055,0.554,-1.462,-2.130,-0.339,0.780
0.066,0.556,-1.410,-2.409,-0.347,0.770
0.075,0.555,-1.361,-2.673,-0.359,0.753
0.085,0.552,-1.314,-2.921,-0.369,0.732
0.094,0.549,-1.266,-3.150,-0.371,0.703
0.122,0.552,-1.080,-3.931,-0.302,0.511
0.129,0.554,-1.038,-4.064,-0.267,0.455
0.134,0.555,-1.000,-4.179,-0.219,0.396
0.139,0.555,-0.962,-4.278,-0.163,0.335
0.142,0.558,-0.925,-4.361,-0.098,0.275
0.143,0.563,-0.885,-4.429,-0.022,0.216
0.142,0.568,-0.848,-4.484,0.061,0.158
0.137,0.577,-0.811,-4.528,0.150,0.100
0.133,0.585,-0.774,-4.564,0.241,0.046
0.128,0.596,-0.737,-4.592,0.332,-0.006
0.124,0.610,-0.702,-4.613,0.424,-0.053

0.077,1.072,0.793,0.382,0.707,-0.098
0.072,1.064,0.829,0.499,0.725,-0.072
0.054,1.036,0.867,0.633,0.742,-0.047
0.028,0.988,0.899,0.781,0.753,-0.021
0.002,0.950,0.943,0.940,0.740,0.009
-0.005,0.950,0.978,1.099,0.728,0.040
-0.010,0.965,1.005,1.281,0.707,0.074
-0.018,0.971,1.033,1.489,0.658,0.111
-0.033,0.960,1.061,1.720,0.586,0.147
-0.053,0.928,1.088,1.973,0.501,0.181
-0.072,0.891,1.114,2.247,0.401,0.217
-0.090,0.855,1.133,2.540,0.283,0.255
-0.102,0.821,1.146,2.854,0.147,0.297
-0.111,0.792,1.154,3.184,-0.007,0.342
-0.118,0.764,1.153,3.527,-0.176,0.387
-0.123,0.738,1.145,3.879,-0.355,0.433
-0.121,0.711,1.129,4.236,-0.542,0.477
-0.115,0.684,1.106,4.592,-0.728,0.515
-0.110,0.659,1.077,4.945,-0.909,0.550
-0.107,0.635,1.042,5.291,-1.091,0.579
-0.102,0.614,1.002,5.627,-1.274,0.600
-0.100,0.592,0.957,5.951,-1.462,0.614
-0.097,0.566,0.904,6.263,-1.647,0.619
-0.091,0.534,0.843,6.564,-1.835,0.618
-0.086,0.500,0.778,6.855,-2.016,0.613
-0.066,0.340,0.430,7.946,-2.795,0.561
-0.059,0.312,0.338,8.145,-2.979,0.542
-0.047,0.288,0.235,8.323,-3.158,0.516
-0.035,0.267,0.128,8.482,-3.321,0.484
-0.022,0.248,0.014,8.618,-3.460,0.444
-0.008,0.235,-0.108,8.730,-3.560,0.397
0.009,0.227,-0.235,8.819,-3.613,0.345
0.026,0.222,-0.364,8.884,-3.613,0.291
0.045,0.225,-0.492,8.924,-3.555,0.236
0.062,0.237,-0.622,8.934,-3.440,0.184
0.076,0.253,-0.751,8.916,-3.277,0.138
0.086,0.268,-0.873,8.867,-3.072,0.098
0.091,0.283,-0.988,8.786,-2.836,0.066
0.090,0.299,-1.100,8.672,-2.575,0.042
0.085,0.314,-1.202,8.526,-2.317,0.027
0.077,0.325,-1.294,8.346,-2.065,0.019
0.067,0.335,-1.379,8.132,-1.832,0.020
0.055,0.348,-1.457,7.885,-1.624,0.027
0.047,0.362,-1.530,7.607,-1.442,0.037
0.040,0.378,-1.593,7.302,-1.279,0.049
0.033,0.399,-1.654,6.971,-1.131,0.061
0.033,0.424,-1.711,6.615,-1.003,0.073
0.037,0.449,-1.762,6.241,-0.883,0.084
0.061,0.533,-1.896,4.439,-0.400,0.081
0.066,0.539,-1.908,3.995,-0.309,0.070
0.070,0.543,-1.910,3.546,-0.231,0.056
0.073,0.548,-1.908,3.096,-0.167,0.040
0.073,0.550,-1.899,2.644,-0.118,0.019
0.075,0.552,-1.884,2.193,-0.079,-0.006
0.079,0.557,-1.863,1.745,-0.050,-0.035
0.082,0.561,-1.840,1.303,-0.030,-0.067
0.084,0.564,-1.812,0.867,-0.017,-0.100
0.084,0.565,-1.778,0.442,-0.007,-0.136
0.083,0.565,-1.740,0.029,0.003,-0.175
0.082,0.563,-1.700,-0.367,0.016,-0.213
0.080,0.560,-1.657,-0.744,0.035,-0.251
0.076,0.555,-1.612,-1.101,0.063,-0.288
0.071,0.550,-1.562,-1.434,0.097,-0.325
0.067,0.545,-1.513,-1.741,0.136,-0.358
0.058,0.542,-1.464,-2.026,0.177,-0.390
0.048,0.540,-1.413,-2.289,0.217,-0.418
0.040,0.539,-1.359,-2.533,0.255,-0.444
0.032,0.541,-1.306,-2.758,0.292,-0.466
0.000,0.564,-1.082,-3.526,0.412,-0.508
-0.006,0.570,-1.033,-3.660,0.428,-0.506
-0.010,0.579,-0.987,-3.777,0.440,-0.497
-0.017,0.590,-0.941,-3.880,0.448,-0.482
-0.024,0.599,-0.897,-3.966,0.452,-0.463
-0.031,0.606,-0.854,-4.040,0.452,-0.440
-0.037,0.613,-0.811,-4.099,0.447,-0.414
-0.043,0.619,-0.770,-4.147,0.438,-0.385
-0.047,0.628,-0.732,-4.182,0.427,-0.353
-0.052,0.638,-0.694,-4.208,0.413,-0.320
-0.054,0.650,-0.658,-4.223,0.399,-0.284
-0.055,0.661,-0.625,-4.229,0.386,-0.249

0.131,1.168,0.693,0.178,0.706,-0.085
0.131,1.166,0.738,0.236,0.840,-0.067
0.125,1.153,0.788,0.319,0.996,-0.051
0.111,1.127,0.840,0.431,1.164,-0.034
0.088,1.094,0.895,0.571,1.333,-0.016
0.062,1.060,0.952,0.743,1.493,0.005
0.034,1.030,1.011,0.944,1.636,0.034
-0.001,0.998,1.070,1.178,1.749,0.068
-0.039,0.966,1.133,1.445,1.821,0.110
-0.080,0.934,1.193,1.741,1.856,0.160
-0.127,0.906,1.251,2.066,1.849,0.216
-0.170,0.879,1.305,2.416,1.800,0.278
-0.207,0.846,1.359,2.797,1.707,0.347
-0.243,0.811,1.403,3.205,1.577,0.427
-0.273,0.771,1.444,3.643,1.414,0.515
-0.299,0.733,1.478,4.105,1.226,0.613
-0.320,0.688,1.504,4.588,1.024,0.714
-0.332,0.645,1.515,5.087,0.808,0.816
-0.339,0.601,1.516,5.598,0.570,0.923
-0.342,0.553,1.506,6.111,0.311,1.029
-0.337,0.507,1.487,6.619,0.021,1.134
-0.325,0.461,1.453,7.121,-0.298,1.235
-0.309,0.413,1.403,7.607,-0.643,1.326
-0.291,0.361,1.341,8.074,-1.014,1.402
-0.269,0.309,1.263,8.519,-1.404,1.461
-0.244,0.259,1.170,8.937,-1.808,1.499
-0.217,0.211,1.065,9.326,-2.218,1.521
-0.106,0.008,0.481,10.617,-3.926,1.389
-0.069,-0.013,0.311,10.809,-4.235,1.313
-0.026,-0.026,0.130,10.965,-4.474,1.226
0.020,-0.036,-0.062,11.084,-4.624,1.131
0.064,-0.046,-0.259,11.172,-4.672,1.031
0.105,-0.053,-0.455,11.229,-4.611,0.929
0.140,-0.058,-0.649,11.255,-4.448,0.830
0.170,-0.060,-0.835,11.251,-4.194,0.738
0.191,-0.061,-1.010,11.212,-3.865,0.654
0.199,-0.063,-1.167,11.134,-3.497,0.584
0.195,-0.065,-1.311,11.013,-3.122,0.528
0.186,-0.069,-1.440,10.846,-2.769,0.487
0.172,-0.069,-1.553,10.626,-2.455,0.464
0.152,-0.065,-1.655,10.351,-2.191,0.454
0.130,-0.057,-1.751,10.020,-1.991,0.457
0.111,-0.039,-1.841,9.635,-1.850,0.467
0.088,-0.019,-1.927,9.202,-1.770,0.486
0.014,0.052,-2.248,6.864,-1.768,0.573
-0.007,0.071,-2.314,6.248,-1.795,0.586
-0.026,0.093,-2.371,5.621,-1.819,0.586
-0.029,0.120,-2.421,4.982,-1.812,0.574
-0.026,0.147,-2.466,4.334,-1.770,0.560
-0.022,0.175,-2.504,3.684,-1.702,0.547
-0.020,0.203,-2.533,3.035,-1.613,0.537
-0.022,0.223,-2.550,2.391,-1.503,0.527
-0.024,0.236,-2.556,1.755,-1.370,0.512
-0.024,0.242,-2.548,1.130,-1.217,0.491
-0.024,0.243,-2.526,0.520,-1.049,0.466
-0.023,0.241,-2.494,-0.072,-0.869,0.437
-0.023,0.236,-2.446,-0.644,-0.684,0.407
-0.025,0.231,-2.386,-1.191,-0.502,0.374
-0.028,0.224,-2.317,-1.712,-0.335,0.338
-0.034,0.217,-2.240,-2.208,-0.186,0.302
-0.042,0.211,-2.155,-2.678,-0.056,0.266
-0.049,0.208,-2.069,-3.121,0.054,0.230
-0.066,0.224,-1.691,-4.761,0.315,0.083
-0.065,0.235,-1.591,-5.174,0.360,0.045
-0.065,0.242,-1.522,-5.455,0.387,0.021
-0.065,0.247,-1.457,-5.712,0.417,0.002
-0.067,0.250,-1.393,-5.945,0.438,-0.011
-0.072,0.255,-1.330,-6.157,0.453,-0.018
-0.077,0.263,-1.271,-6.348,0.462,-0.023
-0.083,0.273,-1.215,-6.523,0.465,-0.026
-0.084,0.284,-1.159,-6.679,0.469,-0.026
-0.084,0.297,-1.108,-6.816,0.478,-0.019
-0.082,0.311,-1.058,-6.934,0.491,-0.009
-0.078,0.321,-1.009,-7.033,0.516,0.006
-0.077,0.333,-0.960,-7.114,0.554,0.027
-0.080,0.340,-0.913,-7.177,0.600,0.050
-0.081,0.348,-0.864,-7.225,0.652,0.079
-0.076,0.361,-0.821,-7.258,0.709,0.111
-0.065,0.378,-0.774,-7.275,0.769,0.146
-0.048,0.396,-0.727,-7.275,0.849,0.182

0.057,1.026,0.840,0.643,0.552,0.198
0.054,1.017,0.871,0.806,0.553,0.206
0.052,0.996,0.901,0.991,0.566,0.214
0.042,0.963,0.930,1.200,0.592,0.223
0.027,0.919,0.958,1.438,0.623,0.236
0.007,0.876,0.983,1.701,0.652,0.253
-0.020,0.837,1.008,1.989,0.663,0.274
-0.046,0.802,1.029,2.301,0.643,0.299
-0.067,0.767,1.050,2.627,0.583,0.334
-0.085,0.743,1.068,2.962,0.487,0.379
-0.102,0.721,1.085,3.303,0.348,0.434
-0.117,0.701,1.090,3.647,0.166,0.493
-0.132,0.682,1.090,3.992,-0.056,0.551
-0.144,0.658,1.080,4.334,-0.313,0.607
-0.153,0.635,1.061,4.673,-0.599,0.654
-0.155,0.612,1.036,5.008,-0.909,0.695
-0.152,0.585,1.001,5.340,-1.232,0.729
-0.146,0.555,0.955,5.670,-1.558,0.753
-0.135,0.522,0.902,5.998,-1.882,0.768
-0.123,0.486,0.843,6.323,-2.195,0.772
-0.109,0.449,0.779,6.641,-2.495,0.764
-0.095,0.416,0.713,6.949,-2.771,0.748
-0.081,0.386,0.642,7.243,-3.022,0.722
-0.068,0.361,0.566,7.521,-3.250,0.684
-0.052,0.340,0.486,7.782,-3.452,0.637
-0.032,0.329,0.406,8.024,-3.624,0.584
-0.012,0.312,0.315,8.252,-3.755,0.525
0.058,0.255,-0.113,9.021,-3.866,0.242
0.070,0.254,-0.220,9.135,-3.801,0.178
0.084,0.255,-0.333,9.222,-3.705,0.117
0.098,0.260,-0.445,9.279,-3.575,0.063
0.113,0.268,-0.558,9.309,-3.412,0.013
0.122,0.277,-0.669,9.310,-3.218,-0.030
0.127,0.285,-0.780,9.284,-2.999,-0.070
0.131,0.295,-0.887,9.232,-2.763,-0.104
0.131,0.305,-0.985,9.152,-2.512,-0.133
0.128,0.315,-1.079,9.043,-2.260,-0.156
0.124,0.327,-1.168,8.905,-2.011,-0.173
0.118,0.339,-1.251,8.737,-1.769,-0.185
0.111,0.348,-1.327,8.541,-1.539,-0.192
0.101,0.357,-1.397,8.319,-1.328,-0.192
0.093,0.368,-1.460,8.068,-1.134,-0.188
0.083,0.379,-1.519,7.789,-0.963,-0.182
0.073,0.392,-1.571,7.488,-0.824,-0.172
0.067,0.405,-1.622,7.162,-0.708,-0.164
0.060,0.416,-1.669,6.814,-0.613,-0.155
0.056,0.426,-1.712,6.446,-0.535,-0.149
0.061,0.480,-1.864,4.671,-0.310,-0.169
0.066,0.493,-1.888,4.229,-0.256,-0.185
0.074,0.504,-1.904,3.781,-0.198,-0.204
0.080,0.515,-1.917,3.327,-0.134,-0.228
0.085,0.522,-1.922,2.868,-0.070,-0.252
0.085,0.526,-1.921,2.406,-0.010,-0.280
0.082,0.529,-1.914,1.944,0.044,-0.310
0.078,0.531,-1.900,1.482,0.088,-0.341
0.076,0.533,-1.882,1.022,0.121,-0.374
0.074,0.535,-1.860,0.566,0.140,-0.408
0.069,0.534,-1.829,0.118,0.149,-0.440
0.064,0.532,-1.794,-0.322,0.146,-0.473
0.058,0.534,-1.755,-0.751,0.133,-0.506
0.049,0.532,-1.716,-1.165,0.117,-0.537
0.040,0.530,-1.673,-1.559,0.098,-0.570
0.032,0.529,-1.627,-1.933,0.078,-0.601
0.025,0.529,-1.576,-2.286,0.062,-0.630
0.019,0.530,-1.523,-2.619,0.052,-0.654
0.014,0.535,-1.473,-2.932,0.052,-0.677
0.009,0.541,-1.421,-3.226,0.062,-0.696
-0.023,0.569,-1.213,-4.291,0.129,-0.747
-0.030,0.573,-1.164,-4.493,0.138,-0.748
-0.037,0.574,-1.117,-4.680,0.146,-0.745
-0.046,0.578,-1.070,-4.853,0.148,-0.740
-0.055,0.581,-1.025,-5.011,0.147,-0.731
-0.064,0.585,-0.984,-5.156,0.142,-0.718
-0.072,0.589,-0.944,-5.289,0.131,-0.702
-0.080,0.593,-0.904,-5.409,0.118,-0.682
-0.087,0.598,-0.868,-5.519,0.100,-0.658
-0.095,0.603,-0.832,-5.616,0.080,-0.629
-0.100,0.609,-0.799,-5.703,0.056,-0.596
-0.104,0.614,-0.762,-5.778,0.033,-0.558
-0.107,0.617,-0.726,-5.840,0.014,-0.515

-0.019,1.036,0.915,0.256,0.604,0.146
-0.007,1.063,0.953,0.364,0.566,0.186
-0.013,1.059,0.991,0.499,0.510,0.226
-0.017,1.044,1.040,0.654,0.454,0.262
-0.025,1.014,1.077,0.834,0.422,0.289
-0.035,0.975,1.112,1.046,0.400,0.313
-0.050,0.928,1.150,1.292,0.371,0.336
-0.068,0.886,1.189,1.568,0.327,0.360
-0.082,0.852,1.224,1.872,0.256,0.386
-0.103,0.822,1.251,2.206,0.145,0.414
-0.125,0.787,1.279,2.564,-0.016,0.440
-0.146,0.746,1.298,2.942,-0.212,0.461
-0.167,0.706,1.306,3.335,-0.438,0.479
-0.180,0.667,1.305,3.743,-0.686,0.492
-0.188,0.633,1.293,4.160,-0.949,0.501
-0.192,0.601,1.267,4.585,-1.220,0.508
-0.192,0.570,1.231,5.011,-1.486,0.511
-0.187,0.539,1.181,5.438,-1.742,0.513
-0.180,0.509,1.122,5.860,-1.983,0.514
-0.177,0.476,1.052,6.271,-2.211,0.515
-0.174,0.440,0.972,6.671,-2.431,0.513
-0.172,0.400,0.886,7.053,-2.649,0.510
-0.170,0.361,0.790,7.417,-2.863,0.506
-0.166,0.320,0.688,7.762,-3.068,0.498
-0.159,0.282,0.576,8.087,-3.261,0.487
-0.099,0.183,0.021,9.184,-3.838,0.400
-0.074,0.181,-0.126,9.358,-3.855,0.368
-0.047,0.179,-0.267,9.502,-3.809,0.335
-0.026,0.176,-0.413,9.612,-3.696,0.305
-0.013,0.172,-0.553,9.688,-3.527,0.278
-0.007,0.167,-0.687,9.728,-3.314,0.255
-0.002,0.166,-0.814,9.734,-3.068,0.238
0.001,0.167,-0.937,9.706,-2.795,0.229
0.000,0.173,-1.053,9.640,-2.509,0.228
-0.003,0.179,-1.161,9.539,-2.230,0.235
-0.006,0.186,-1.265,9.398,-1.958,0.250
-0.011,0.195,-1.361,9.219,-1.707,0.271
-0.016,0.207,-1.450,9.001,-1.479,0.301
-0.016,0.224,-1.533,8.743,-1.276,0.335
-0.015,0.242,-1.614,8.447,-1.092,0.375
-0.013,0.262,-1.689,8.114,-0.931,0.417
-0.012,0.286,-1.761,7.745,-0.794,0.461
-0.006,0.310,-1.828,7.345,-0.677,0.506
-0.002,0.333,-1.893,6.914,-0.580,0.548
0.002,0.353,-1.952,6.457,-0.500,0.587
0.039,0.426,-2.136,4.240,-0.283,0.708
0.053,0.444,-2.158,3.690,-0.238,0.714
0.067,0.464,-2.171,3.131,-0.188,0.710
0.081,0.488,-2.177,2.566,-0.131,0.694
0.092,0.513,-2.175,1.996,-0.069,0.664
0.102,0.536,-2.165,1.426,-0.003,0.622
0.110,0.553,-2.146,0.859,0.062,0.567
0.116,0.564,-2.118,0.297,0.121,0.502
0.120,0.570,-2.081,-0.255,0.176,0.431
0.123,0.569,-2.036,-0.793,0.221,0.353
0.124,0.562,-1.987,-1.318,0.262,0.272
0.123,0.550,-1.935,-1.821,0.294,0.190
0.121,0.536,-1.877,-2.301,0.318,0.112
0.119,0.525,-1.816,-2.757,0.342,0.036
0.119,0.516,-1.757,-3.188,0.364,-0.035
0.119,0.510,-1.697,-3.596,0.388,-0.100
0.118,0.505,-1.636,-3.979,0.413,-0.160
0.115,0.501,-1.571,-4.339,0.441,-0.213
0.112,0.499,-1.508,-4.674,0.467,-0.262
0.109,0.497,-1.445,-4.987,0.495,-0.304
0.105,0.497,-1.380,-5.276,0.526,-0.345
0.103,0.494,-1.317,-5.545,0.561,-0.380
0.094,0.501,-1.052,-6.458,0.784,-0.502
0.089,0.500,-0.991,-6.614,0.849,-0.523
0.086,0.500,-0.932,-6.749,0.928,-0.541
0.080,0.498,-0.869,-6.860,1.012,-0.556
0.074,0.495,-0.808,-6.948,1.095,-0.568
0.069,0.492,-0.745,-7.013,1.180,-0.579
0.063,0.492,-0.681,-7.058,1.266,-0.587
0.060,0.493,-0.617,-7.081,1.356,-0.596
0.058,0.498,-0.556,-7.081,1.453,-0.604
0.054,0.502,-0.493,-7.059,1.548,-0.612
0.048,0.506,-0.431,-7.015,1.642,-0.618
0.036,0.503,-0.366,-6.953,1.733,-0.627
0.024,0.504,-0.302,-6.873,1.818,-0.635

0.046,1.050,0.849,0.750,0.362,0.317
0.048,1.045,0.881,0.859,0.418,0.342
0.042,1.026,0.910,0.978,0.475,0.365
0.028,1.000,0.944,1.107,0.516,0.388
0.032,1.001,0.981,1.237,0.560,0.415
0.031,1.007,1.007,1.382,0.601,0.440
0.024,1.003,1.036,1.552,0.619,0.464
0.007,0.984,1.062,1.744,0.611,0.486
-0.009,0.956,1.089,1.960,0.585,0.507
-0.030,0.916,1.112,2.202,0.531,0.525
-0.052,0.875,1.134,2.466,0.452,0.543
-0.070,0.837,1.151,2.752,0.351,0.561
-0.091,0.796,1.164,3.063,0.216,0.578
-0.116,0.755,1.171,3.394,0.045,0.595
-0.136,0.708,1.175,3.741,-0.163,0.611
-0.156,0.660,1.169,4.098,-0.398,0.625
-0.169,0.620,1.155,4.463,-0.659,0.635
-0.171,0.591,1.130,4.834,-0.938,0.644
-0.167,0.566,1.095,5.206,-1.224,0.649
-0.160,0.539,1.052,5.577,-1.509,0.650
-0.150,0.509,1.003,5.942,-1.788,0.648
-0.140,0.470,0.942,6.298,-2.064,0.643
-0.134,0.428,0.872,6.645,-2.333,0.634
-0.127,0.399,0.822,6.870,-2.507,0.626
-0.116,0.358,0.741,7.194,-2.763,0.611
-0.103,0.320,0.654,7.503,-3.005,0.592
-0.090,0.281,0.559,7.793,-3.234,0.568
-0.027,0.150,0.028,8.897,-3.898,0.382
-0.015,0.136,-0.102,9.066,-3.928,0.329
-0.004,0.126,-0.231,9.208,-3.912,0.274
0.005,0.121,-0.363,9.317,-3.847,0.218
0.012,0.120,-0.498,9.398,-3.732,0.166
0.015,0.120,-0.628,9.447,-3.574,0.116
0.014,0.120,-0.754,9.466,-3.374,0.069
0.011,0.120,-0.876,9.455,-3.141,0.030
0.008,0.121,-0.994,9.410,-2.885,-0.002
0.004,0.126,-1.104,9.333,-2.615,-0.021
-0.002,0.134,-1.210,9.223,-2.338,-0.027
-0.011,0.145,-1.309,9.078,-2.069,-0.018
-0.019,0.157,-1.399,8.901,-1.810,0.002
-0.024,0.170,-1.483,8.689,-1.561,0.034
-0.028,0.185,-1.564,8.445,-1.328,0.077
-0.031,0.204,-1.641,8.168,-1.114,0.128
-0.030,0.222,-1.711,7.861,-0.923,0.186
-0.028,0.242,-1.777,7.522,-0.752,0.248
-0.027,0.263,-1.842,7.154,-0.606,0.311
-0.025,0.284,-1.898,6.760,-0.491,0.375
0.011,0.381,-2.051,4.769,-0.168,0.552
0.024,0.412,-2.071,4.256,-0.114,0.560
0.037,0.442,-2.084,3.731,-0.065,0.553
0.048,0.470,-2.090,3.198,-0.019,0.533
0.058,0.496,-2.090,2.658,0.022,0.500
0.068,0.519,-2.083,2.116,0.060,0.453
0.077,0.535,-2.066,1.574,0.095,0.397
0.087,0.548,-2.043,1.038,0.125,0.332
0.097,0.556,-2.015,0.510,0.148,0.261
0.102,0.558,-1.983,-0.005,0.168,0.187
0.108,0.557,-1.943,-0.503,0.187,0.113
0.116,0.553,-1.900,-0.983,0.210,0.037
0.121,0.546,-1.852,-1.440,0.237,-0.035
0.123,0.541,-1.798,-1.873,0.272,-0.105
0.123,0.539,-1.759,-2.148,0.297,-0.151
0.123,0.533,-1.699,-2.540,0.337,-0.216
0.122,0.530,-1.636,-2.907,0.378,-0.279
0.119,0.528,-1.572,-3.249,0.415,-0.336
0.116,0.527,-1.506,-3.569,0.451,-0.391
0.111,0.528,-1.441,-3.866,0.484,-0.440
0.107,0.532,-1.376,-4.142,0.512,-0.485
0.103,0.540,-1.313,-4.398,0.538,-0.526
0.060,0.558,-1.028,-5.357,0.615,-0.668
0.051,0.560,-0.974,-5.509,0.623,-0.681
0.041,0.562,-0.920,-5.643,0.626,-0.687
0.031,0.567,-0.867,-5.757,0.623,-0.689
0.021,0.573,-0.815,-5.856,0.616,-0.684
0.014,0.578,-0.766,-5.938,0.609,-0.676
0.010,0.587,-0.716,-6.005,0.604,-0.663
0.005,0.593,-0.668,-6.054,0.603,-0.648
-0.000,0.599,-0.620,-6.086,0.607,-0.629
-0.005,0.603,-0.575,-6.103,0.615,-0.607
-0.009,0.609,-0.530,-6.107,0.630,-0.581

0.005,1.115,0.805,-0.010,0.640,0.126
-0.001,1.096,0.838,0.049,0.648,0.153
-0.011,1.065,0.871,0.129,0.654,0.181
-0.024,1.031,0.906,0.231,0.656,0.209
-0.043,1.000,0.939,0.359,0.636,0.234
-0.059,0.976,0.978,0.510,0.590,0.259
-0.071,0.954,1.014,0.684,0.521,0.284
-0.080,0.929,1.050,0.881,0.432,0.309
-0.096,0.899,1.079,1.098,0.320,0.336
-0.110,0.874,1.109,1.331,0.179,0.364
-0.121,0.856,1.129,1.580,0.019,0.390
-0.131,0.835,1.144,1.847,-0.166,0.412
-0.135,0.811,1.154,2.135,-0.376,0.432
-0.140,0.781,1.159,2.437,-0.599,0.451
-0.143,0.748,1.157,2.751,-0.832,0.469
-0.147,0.715,1.146,3.072,-1.072,0.484
-0.148,0.689,1.131,3.400,-1.321,0.497
-0.143,0.668,1.110,3.733,-1.573,0.506
-0.136,0.649,1.081,4.064,-1.830,0.510
-0.129,0.630,1.042,4.392,-2.082,0.510
-0.125,0.609,0.993,4.717,-2.331,0.504
-0.120,0.582,0.940,5.035,-2.570,0.494
-0.115,0.554,0.878,5.347,-2.798,0.477
-0.109,0.526,0.810,5.647,-3.014,0.453
-0.104,0.497,0.734,5.937,-3.216,0.425
-0.086,0.390,0.360,7.059,-3.925,0.260
-0.081,0.373,0.263,7.276,-4.028,0.216
-0.077,0.360,0.163,7.475,-4.104,0.171
-0.070,0.353,0.063,7.650,-4.149,0.127
-0.061,0.352,-0.045,7.802,-4.150,0.083
-0.047,0.360,-0.158,7.930,-4.100,0.039
-0.030,0.372,-0.274,8.034,-3.995,0.001
-0.014,0.383,-0.393,8.115,-3.830,-0.031
0.002,0.391,-0.509,8.173,-3.612,-0.056
0.014,0.397,-0.623,8.208,-3.342,-0.071
0.021,0.389,-0.731,8.226,-3.035,-0.077
0.021,0.374,-0.830,8.221,-2.704,-0.070
0.017,0.362,-0.923,8.191,-2.357,-0.054
0.011,0.354,-1.010,8.135,-2.012,-0.031
0.003,0.355,-1.089,8.052,-1.684,-0.001
-0.004,0.362,-1.162,7.939,-1.382,0.033
-0.008,0.375,-1.228,7.797,-1.116,0.070
-0.010,0.392,-1.288,7.624,-0.885,0.110
-0.012,0.405,-1.342,7.420,-0.694,0.149
-0.014,0.415,-1.392,7.188,-0.540,0.188
0.004,0.469,-1.560,5.900,-0.220,0.294
0.014,0.489,-1.593,5.548,-0.203,0.300
0.027,0.509,-1.623,5.177,-0.194,0.300
0.041,0.530,-1.652,4.793,-0.188,0.292
0.054,0.548,-1.677,4.396,-0.183,0.278
0.068,0.565,-1.696,3.989,-0.173,0.258
0.082,0.586,-1.713,3.570,-0.158,0.229
0.094,0.610,-1.727,3.146,-0.137,0.195
0.102,0.633,-1.735,2.714,-0.110,0.153
0.109,0.654,-1.740,2.276,-0.077,0.106
0.114,0.672,-1.740,1.836,-0.044,0.056
0.117,0.686,-1.734,1.396,-0.015,0.003
0.116,0.697,-1.726,0.956,0.006,-0.052
0.114,0.703,-1.710,0.518,0.021,-0.107
0.110,0.708,-1.691,0.087,0.032,-0.161
0.107,0.712,-1.666,-0.334,0.042,-0.213
0.105,0.713,-1.641,-0.745,0.052,-0.261
0.102,0.716,-1.613,-1.144,0.066,-0.304
0.094,0.717,-1.576,-1.525,0.083,-0.346
0.087,0.718,-1.541,-1.891,0.099,-0.384
0.079,0.716,-1.502,-2.238,0.121,-0.419
0.069,0.713,-1.460,-2.566,0.152,-0.448
0.023,0.695,-1.252,-3.778,0.350,-0.518
0.014,0.690,-1.202,-4.011,0.398,-0.521
0.006,0.686,-1.151,-4.228,0.447,-0.523
-0.002,0.683,-1.099,-4.429,0.493,-0.520
-0.008,0.681,-1.045,-4.614,0.536,-0.517
-0.013,0.680,-0.992,-4.786,0.576,-0.512
-0.018,0.679,-0.941,-4.942,0.609,-0.504
-0.024,0.677,-0.891,-5.085,0.637,-0.496
-0.032,0.674,-0.828,-5.254,0.670,-0.481
-0.036,0.670,-0.779,-5.365,0.690,-0.468
-0.037,0.666,-0.731,-5.461,0.708,-0.453
-0.033,0.662,-0.683,-5.542,0.729,-0.436
-0.030,0.664,-0.635,-5.612,0.757,-0.418

0.204,0.931,0.887,1.227,-1.092,0.090
0.234,0.960,0.902,1.431,-0.943,0.078
0.244,0.955,0.918,1.650,-0.784,0.057
0.243,0.928,0.943,1.876,-0.615,0.029
0.236,0.895,0.969,2.106,-0.449,-0.006
0.223,0.864,0.993,2.338,-0.294,-0.047
0.200,0.828,1.017,2.575,-0.168,-0.088
0.149,0.773,1.036,2.815,-0.107,-0.126
0.134,0.774,1.070,3.036,-0.093,-0.160
0.127,0.791,1.076,3.260,-0.105,-0.188
0.123,0.807,1.083,3.504,-0.176,-0.213
0.109,0.793,1.085,3.771,-0.284,-0.234
0.081,0.743,1.084,4.058,-0.420,-0.256
0.059,0.700,1.081,4.261,-0.521,-0.274
0.023,0.631,1.072,4.581,-0.687,-0.301
-0.011,0.568,1.054,4.918,-0.875,-0.331
-0.048,0.506,1.023,5.267,-1.094,-0.359
-0.075,0.475,1.001,5.623,-1.356,-0.383
-0.090,0.455,0.958,5.976,-1.628,-0.408
-0.098,0.440,0.904,6.336,-1.922,-0.429
-0.105,0.413,0.842,6.698,-2.210,-0.451
-0.118,0.371,0.773,7.057,-2.483,-0.475
-0.142,0.178,0.370,8.591,-3.381,-0.612
-0.138,0.147,0.268,8.880,-3.469,-0.640
-0.134,0.117,0.159,9.150,-3.517,-0.664
-0.130,0.090,0.048,9.397,-3.524,-0.685
-0.125,0.067,-0.070,9.620,-3.487,-0.702
-0.112,0.051,-0.196,9.814,-3.411,-0.714
-0.104,0.066,-0.315,9.974,-3.292,-0.703
-0.102,0.079,-0.445,10.092,-3.168,-0.669
-0.129,0.084,-0.569,10.170,-3.046,-0.616
-0.150,0.076,-0.694,10.201,-2.948,-0.554
-0.173,0.044,-0.839,10.197,-2.846,-0.485
-0.176,0.019,-0.973,10.187,-2.674,-0.434
-0.177,-0.008,-1.100,10.161,-2.420,-0.398
-0.175,-0.020,-1.219,10.119,-2.114,-0.369
-0.174,-0.018,-1.331,10.051,-1.768,-0.345
-0.174,-0.010,-1.433,9.953,-1.409,-0.325
-0.205,0.113,-1.757,9.061,-0.221,-0.130
-0.226,0.134,-1.808,8.722,-0.131,-0.069
-0.231,0.157,-1.859,8.337,-0.098,-0.018
-0.218,0.189,-1.914,7.906,-0.100,0.026
-0.197,0.225,-1.972,7.433,-0.119,0.067
-0.175,0.259,-2.032,6.924,-0.146,0.112
-0.151,0.292,-2.095,6.384,-0.169,0.159
-0.128,0.322,-2.153,5.820,-0.179,0.205
-0.109,0.351,-2.208,5.236,-0.171,0.250
-0.091,0.380,-2.260,4.638,-0.147,0.291
-0.074,0.408,-2.303,4.031,-0.105,0.321
-0.061,0.433,-2.333,3.417,-0.049,0.344
-0.050,0.454,-2.350,2.798,0.019,0.359
-0.043,0.473,-2.351,2.175,0.093,0.364
-0.037,0.488,-2.341,1.554,0.161,0.360
-0.034,0.500,-2.319,0.937,0.216,0.348
-0.034,0.510,-2.286,0.326,0.252,0.332
-0.033,0.515,-2.243,-0.278,0.268,0.312
-0.034,0.516,-2.190,-0.869,0.264,0.288
-0.034,0.514,-2.134,-1.442,0.239,0.263
-0.021,0.513,-1.852,-3.679,0.109,0.149
-0.018,0.510,-1.781,-4.128,0.097,0.129
-0.019,0.505,-1.710,-4.552,0.092,0.111
-0.022,0.496,-1.639,-4.949,0.090,0.096
-0.026,0.487,-1.571,-5.320,0.092,0.084
-0.033,0.478,-1.501,-5.666,0.092,0.074
-0.040,0.459,-1.433,-5.985,0.089,0.067
-0.044,0.447,-1.368,-6.278,0.081,0.064
-0.051,0.427,-1.303,-6.545,0.070,0.063
-0.051,0.415,-1.245,-6.788,0.051,0.063
-0.049,0.408,-1.191,-7.005,0.033,0.068
-0.045,0.403,-1.137,-7.193,0.028,0.077
-0.040,0.401,-1.084,-7.354,0.038,0.085
-0.034,0.401,-1.029,-7.488,0.067,0.096
-0.028,0.401,-0.974,-7.595,0.115,0.104
-0.020,0.403,-0.921,-7.675,0.180,0.113
-0.009,0.407,-0.864,-7.728,0.263,0.120
-0.000,0.410,-0.807,-7.754,0.365,0.126
0.007,0.411,-0.747,-7.755,0.483,0.129
0.016,0.410,-0.686,-7.731,0.619,0.130
0.019,0.384,-0.399,-7.312,1.406,0.071
0.020,0.385,-0.337,-7.172,1.585,0.049

-0.036,1.024,0.905,-0.214,0.847,0.072
-0.044,1.024,0.950,-0.119,0.877,0.102
-0.067,0.997,0.991,-0.009,0.888,0.136
-0.087,0.972,1.054,0.107,0.866,0.178
-0.093,0.984,1.103,0.219,0.851,0.226
-0.083,1.004,1.143,0.357,0.842,0.272
-0.075,1.017,1.179,0.526,0.830,0.322
-0.079,1.006,1.213,0.731,0.814,0.374
-0.095,0.974,1.251,0.977,0.788,0.421
-0.118,0.928,1.287,1.255,0.749,0.465
-0.143,0.873,1.322,1.562,0.689,0.507
-0.165,0.824,1.356,1.894,0.601,0.550
-0.186,0.780,1.382,2.250,0.479,0.598
-0.203,0.744,1.401,2.623,0.321,0.648
-0.219,0.714,1.419,3.012,0.130,0.698
-0.226,0.690,1.428,3.410,-0.087,0.747
-0.234,0.662,1.427,3.814,-0.326,0.792
-0.241,0.628,1.419,4.222,-0.578,0.832
-0.242,0.596,1.400,4.630,-0.838,0.865
-0.241,0.563,1.370,5.037,-1.103,0.892
-0.233,0.526,1.330,5.444,-1.369,0.912
-0.224,0.488,1.279,5.844,-1.631,0.930
-0.213,0.451,1.218,6.238,-1.894,0.945
-0.203,0.413,1.148,6.625,-2.163,0.957
-0.195,0.369,1.070,6.999,-2.436,0.963
-0.135,0.168,0.636,8.456,-3.580,0.909
-0.118,0.134,0.516,8.744,-3.790,0.873
-0.098,0.111,0.390,9.009,-3.963,0.827
-0.078,0.095,0.255,9.247,-4.088,0.773
-0.056,0.084,0.117,9.460,-4.160,0.711
-0.034,0.077,-0.025,9.643,-4.174,0.646
-0.014,0.079,-0.169,9.796,-4.126,0.578
0.012,0.091,-0.317,9.916,-4.007,0.511
0.034,0.095,-0.470,10.011,-3.818,0.448
0.053,0.089,-0.611,10.079,-3.565,0.393
0.061,0.083,-0.746,10.113,-3.253,0.348
0.065,0.082,-0.874,10.114,-2.914,0.316
0.062,0.083,-0.994,10.079,-2.564,0.293
0.069,0.102,-1.101,10.008,-2.213,0.284
0.056,0.124,-1.200,9.887,-1.883,0.305
0.037,0.129,-1.297,9.730,-1.594,0.335
0.023,0.126,-1.383,9.543,-1.331,0.359
0.021,0.126,-1.459,9.324,-1.092,0.376
0.026,0.139,-1.530,9.073,-0.872,0.393
0.032,0.164,-1.597,8.790,-0.669,0.410
0.038,0.190,-1.659,8.478,-0.484,0.427
0.059,0.273,-1.857,6.815,-0.012,0.494
0.067,0.297,-1.890,6.372,0.017,0.502
0.076,0.322,-1.919,5.912,0.026,0.503
0.088,0.347,-1.943,5.439,0.018,0.497
0.102,0.370,-1.964,4.956,0.005,0.484
0.117,0.389,-1.983,4.465,-0.006,0.463
0.131,0.407,-1.996,3.972,-0.011,0.433
0.144,0.425,-2.007,3.475,-0.005,0.395
0.158,0.442,-2.013,2.977,0.007,0.350
0.174,0.461,-2.013,2.479,0.032,0.299
0.189,0.482,-2.010,1.983,0.064,0.246
0.201,0.504,-2.002,1.487,0.102,0.189
0.208,0.524,-1.986,0.994,0.143,0.131
0.212,0.540,-1.966,0.506,0.180,0.072
0.215,0.553,-1.937,0.021,0.210,0.011
0.213,0.562,-1.902,-0.455,0.230,-0.050
0.207,0.568,-1.864,-0.924,0.236,-0.109
0.199,0.574,-1.820,-1.378,0.230,-0.167
0.192,0.580,-1.771,-1.816,0.216,-0.225
0.186,0.585,-1.721,-2.237,0.199,-0.281
0.180,0.591,-1.670,-2.640,0.185,-0.334
0.173,0.595,-1.615,-3.025,0.178,-0.384
0.164,0.600,-1.557,-3.390,0.179,-0.432
0.112,0.616,-1.304,-4.754,0.258,-0.590
0.097,0.619,-1.247,-5.018,0.278,-0.607
0.081,0.623,-1.187,-5.263,0.291,-0.617
0.069,0.626,-1.127,-5.487,0.294,-0.622
0.061,0.627,-1.065,-5.694,0.288,-0.620
0.052,0.630,-1.003,-5.881,0.283,-0.613
0.043,0.631,-0.940,-6.048,0.279,-0.606
0.038,0.630,-0.878,-6.194,0.279,-0.595
0.035,0.631,-0.819,-6.318,0.281,-0.584
0.036,0.631,-0.760,-6.422,0.289,-0.571
0.040,0.632,-0.701,-6.501,0.305,-0.558

0.079,1.107,0.804,-0.321,1.026,-0.099
0.091,1.117,0.859,-0.265,1.125,-0.080
0.096,1.110,0.916,-0.188,1.247,-0.061
0.087,1.092,0.973,-0.087,1.382,-0.043
0.066,1.064,1.030,0.037,1.509,-0.027
0.032,1.027,1.088,0.185,1.607,-0.012
-0.002,0.993,1.148,0.351,1.662,0.002
-0.042,0.962,1.204,0.540,1.659,0.016
-0.082,0.935,1.255,0.751,1.587,0.030
-0.120,0.899,1.302,0.985,1.443,0.046
-0.161,0.859,1.345,1.242,1.237,0.062
-0.193,0.826,1.386,1.519,0.978,0.078
-0.219,0.798,1.411,1.816,0.686,0.092
-0.239,0.774,1.429,2.137,0.366,0.101
-0.254,0.748,1.441,2.479,0.034,0.109
-0.263,0.717,1.447,2.839,-0.301,0.115
-0.271,0.685,1.444,3.214,-0.633,0.121
-0.277,0.658,1.433,3.597,-0.957,0.129
-0.282,0.639,1.412,3.986,-1.269,0.136
-0.285,0.626,1.382,4.377,-1.570,0.143
-0.287,0.611,1.341,4.769,-1.860,0.147
-0.287,0.591,1.293,5.156,-2.137,0.150
-0.286,0.565,1.236,5.541,-2.397,0.154
-0.283,0.534,1.169,5.920,-2.635,0.160
-0.283,0.498,1.093,6.294,-2.857,0.165
-0.278,0.333,0.703,7.787,-3.653,0.166
-0.275,0.296,0.605,8.091,-3.804,0.158
-0.271,0.260,0.505,8.375,-3.940,0.145
-0.259,0.235,0.403,8.639,-4.055,0.129
-0.247,0.211,0.290,8.881,-4.139,0.110
-0.233,0.191,0.176,9.103,-4.195,0.088
-0.222,0.177,0.056,9.299,-4.211,0.066
-0.210,0.170,-0.068,9.467,-4.189,0.044
-0.194,0.166,-0.199,9.605,-4.126,0.024
-0.172,0.165,-0.335,9.714,-4.013,0.007
-0.155,0.187,-0.465,9.784,-3.847,0.010
-0.149,0.183,-0.601,9.817,-3.655,0.031
-0.151,0.173,-0.731,9.822,-3.428,0.064
-0.157,0.153,-0.855,9.790,-3.180,0.106
-0.159,0.117,-0.987,9.731,-2.914,0.159
-0.157,0.087,-1.108,9.664,-2.592,0.205
-0.152,0.067,-1.218,9.581,-2.221,0.243
-0.147,0.058,-1.315,9.480,-1.828,0.276
-0.142,0.059,-1.407,9.353,-1.437,0.304
-0.137,0.069,-1.487,9.197,-1.064,0.332
-0.150,0.151,-1.743,8.071,-0.098,0.568
-0.152,0.150,-1.788,7.711,-0.043,0.618
-0.146,0.153,-1.832,7.324,-0.014,0.651
-0.127,0.169,-1.877,6.913,0.001,0.668
-0.100,0.194,-1.917,6.483,0.015,0.674
-0.071,0.223,-1.956,6.035,0.030,0.672
-0.047,0.247,-1.995,5.573,0.046,0.664
-0.027,0.267,-2.025,5.099,0.068,0.648
-0.009,0.284,-2.053,4.611,0.100,0.625
0.006,0.300,-2.075,4.116,0.137,0.593
0.020,0.318,-2.092,3.613,0.180,0.552
0.034,0.339,-2.100,3.105,0.227,0.504
0.047,0.360,-2.100,2.594,0.275,0.449
0.060,0.379,-2.093,2.083,0.319,0.387
0.078,0.399,-2.075,1.571,0.366,0.321
0.091,0.418,-2.054,1.060,0.409,0.256
0.100,0.435,-2.026,0.553,0.437,0.192
0.105,0.450,-1.988,0.053,0.452,0.126
0.109,0.457,-1.947,-0.438,0.455,0.060
0.111,0.461,-1.904,-0.918,0.447,-0.007
0.111,0.463,-1.856,-1.380,0.431,-0.072
0.112,0.463,-1.804,-1.823,0.410,-0.135
0.113,0.466,-1.752,-2.243,0.391,-0.196
0.101,0.477,-1.513,-3.799,0.390,-0.429
0.093,0.481,-1.455,-4.099,0.407,-0.475
0.084,0.485,-1.399,-4.378,0.427,-0.517
0.074,0.488,-1.342,-4.637,0.450,-0.556
0.064,0.492,-1.287,-4.876,0.476,-0.592
0.054,0.498,-1.231,-5.097,0.502,-0.624
0.044,0.506,-1.178,-5.302,0.533,-0.651
0.033,0.519,-1.126,-5.490,0.564,-0.676
0.023,0.526,-1.078,-5.665,0.595,-0.693
0.010,0.542,-1.029,-5.826,0.627,-0.706
-0.008,0.550,-0.978,-5.976,0.653,-0.711
-0.024,0.558,-0.928,-6.117,0.667,-0.713

0.107,1.110,0.813,-0.395,0.549,0.014
0.115,1.125,0.868,-0.421,0.577,0.028
0.122,1.131,0.931,-0.432,0.602,0.042
0.130,1.127,0.999,-0.427,0.630,0.057
0.134,1.113,1.066,-0.404,0.672,0.076
0.131,1.080,1.129,-0.358,0.723,0.095
0.111,1.034,1.189,-0.282,0.763,0.117
0.080,0.978,1.247,-0.173,0.777,0.139
0.045,0.912,1.305,-0.029,0.748,0.164
0.005,0.838,1.356,0.153,0.673,0.192
-0.039,0.756,1.391,0.380,0.542,0.225
-0.077,0.715,1.444,0.652,0.335,0.263
-0.086,0.734,1.478,0.960,0.103,0.294
-0.085,0.749,1.501,1.330,-0.153,0.314
-0.088,0.732,1.521,1.759,-0.418,0.327
-0.098,0.688,1.541,2.236,-0.676,0.331
-0.118,0.628,1.553,2.747,-0.915,0.328
-0.139,0.571,1.562,3.280,-1.143,0.319
-0.158,0.525,1.560,3.824,-1.370,0.306
-0.173,0.495,1.545,4.370,-1.603,0.293
-0.184,0.481,1.519,4.911,-1.844,0.279
-0.195,0.470,1.481,5.441,-2.107,0.264
-0.208,0.453,1.432,5.954,-2.393,0.249
-0.219,0.422,1.369,6.446,-2.702,0.234
-0.226,0.378,1.292,6.914,-3.025,0.218
-0.232,0.334,1.205,7.356,-3.349,0.201
-0.207,0.190,0.718,8.931,-4.558,0.072
-0.193,0.176,0.585,9.208,-4.750,0.024
-0.181,0.171,0.448,9.448,-4.901,-0.028
-0.172,0.171,0.307,9.653,-5.013,-0.084
-0.162,0.175,0.162,9.819,-5.081,-0.144
-0.150,0.186,0.010,9.945,-5.099,-0.205
-0.131,0.205,-0.145,10.039,-5.053,-0.266
-0.108,0.225,-0.309,10.103,-4.928,-0.326
-0.085,0.235,-0.471,10.140,-4.721,-0.379
-0.066,0.243,-0.626,10.154,-4.435,-0.422
-0.059,0.228,-0.776,10.155,-4.076,-0.458
-0.052,0.210,-0.909,10.136,-3.649,-0.483
-0.053,0.194,-1.037,10.089,-3.172,-0.492
-0.057,0.189,-1.154,10.015,-2.678,-0.483
-0.061,0.201,-1.259,9.910,-2.184,-0.461
-0.065,0.220,-1.352,9.766,-1.712,-0.420
-0.071,0.242,-1.439,9.587,-1.274,-0.368
-0.105,0.293,-1.729,8.347,0.055,-0.063
-0.113,0.307,-1.783,7.958,0.208,0.006
-0.118,0.324,-1.830,7.536,0.302,0.067
-0.118,0.346,-1.874,7.080,0.347,0.119
-0.113,0.371,-1.913,6.596,0.350,0.161
-0.106,0.393,-1.947,6.087,0.322,0.193
-0.094,0.414,-1.979,5.557,0.277,0.214
-0.079,0.439,-2.008,5.011,0.223,0.225
-0.065,0.461,-2.033,4.453,0.171,0.223
-0.051,0.480,-2.054,3.888,0.126,0.213
-0.037,0.497,-2.069,3.318,0.088,0.196
-0.020,0.515,-2.078,2.748,0.063,0.171
-0.008,0.525,-2.079,2.182,0.051,0.140
-0.002,0.531,-2.072,1.620,0.050,0.103
0.001,0.530,-2.057,1.067,0.057,0.061
0.006,0.527,-2.037,0.526,0.065,0.015
0.011,0.524,-2.010,0.000,0.076,-0.029
0.015,0.519,-1.975,-0.511,0.090,-0.072
0.013,0.511,-1.934,-1.000,0.106,-0.115
0.011,0.503,-1.886,-1.470,0.123,-0.155
0.010,0.495,-1.835,-1.917,0.138,-0.193
0.007,0.490,-1.786,-2.339,0.159,-0.229
-0.001,0.487,-1.542,-3.896,0.320,-0.357
-0.006,0.478,-1.484,-4.193,0.371,-0.378
-0.012,0.479,-1.424,-4.467,0.426,-0.395
-0.024,0.469,-1.363,-4.718,0.483,-0.410
-0.034,0.462,-1.306,-4.950,0.534,-0.425
-0.039,0.463,-1.248,-5.158,0.580,-0.434
-0.043,0.461,-1.188,-5.347,0.629,-0.437
-0.050,0.461,-1.134,-5.512,0.685,-0.436
-0.055,0.462,-1.079,-5.654,0.747,-0.431
-0.059,0.461,-1.024,-5.777,0.811,-0.424
-0.062,0.461,-0.968,-5.878,0.875,-0.413
-0.066,0.461,-0.912,-5.960,0.943,-0.401
-0.068,0.464,-0.857,-6.022,1.014,-0.387
-0.069,0.467,-0.802,-6.065,1.089,-0.375
-0.069,0.471,-0.744,-6.089,1.167,-0.361

0.182,1.022,0.753,0.101,0.031,-0.049
0.186,1.026,0.792,0.156,0.038,-0.053
0.189,1.034,0.835,0.216,0.046,-0.061
0.185,1.038,0.873,0.281,0.050,-0.070
0.181,1.039,0.897,0.330,0.045,-0.078
0.171,1.036,0.933,0.414,0.020,-0.090
0.161,1.023,0.965,0.517,-0.026,-0.104
0.148,0.997,0.992,0.644,-0.093,-0.117
0.134,0.963,1.015,0.797,-0.177,-0.129
0.118,0.924,1.033,0.978,-0.272,-0.138
0.099,0.886,1.047,1.194,-0.385,-0.146
0.078,0.849,1.054,1.442,-0.511,-0.155
0.060,0.814,1.061,1.720,-0.646,-0.167
0.041,0.779,1.062,2.027,-0.789,-0.177
0.021,0.742,1.060,2.360,-0.940,-0.189
0.002,0.706,1.051,2.716,-1.097,-0.201
-0.016,0.674,1.038,3.088,-1.257,-0.214
-0.031,0.645,1.018,3.472,-1.421,-0.227
-0.045,0.622,0.993,3.860,-1.591,-0.237
-0.059,0.605,0.963,4.245,-1.764,-0.248
-0.068,0.596,0.933,4.623,-1.942,-0.258
-0.076,0.585,0.897,4.990,-2.122,-0.267
-0.087,0.578,0.854,5.338,-2.306,-0.277
-0.134,0.500,0.610,6.627,-3.134,-0.333
-0.142,0.476,0.538,6.874,-3.313,-0.350
-0.152,0.450,0.464,7.107,-3.489,-0.368
-0.162,0.429,0.387,7.324,-3.661,-0.388
-0.171,0.413,0.305,7.526,-3.831,-0.411
-0.177,0.399,0.218,7.712,-3.996,-0.435
-0.181,0.381,0.126,7.884,-4.146,-0.462
-0.182,0.363,0.029,8.039,-4.272,-0.490
-0.177,0.349,-0.072,8.178,-4.360,-0.520
-0.163,0.336,-0.214,8.333,-4.396,-0.561
-0.150,0.335,-0.330,8.432,-4.351,-0.591
-0.133,0.334,-0.451,8.516,-4.233,-0.623
-0.116,0.324,-0.569,8.587,-4.045,-0.649
-0.094,0.318,-0.681,8.647,-3.782,-0.668
-0.086,0.294,-0.797,8.697,-3.458,-0.678
-0.082,0.261,-0.898,8.736,-3.089,-0.680
-0.085,0.227,-0.996,8.753,-2.678,-0.670
-0.093,0.203,-1.088,8.750,-2.249,-0.651
-0.120,0.225,-1.431,8.402,-0.560,-0.477
-0.126,0.232,-1.500,8.235,-0.261,-0.428
-0.132,0.236,-1.562,8.036,0.002,-0.378
-0.137,0.238,-1.619,7.802,0.233,-0.331
-0.144,0.242,-1.673,7.534,0.429,-0.288
-0.149,0.251,-1.725,7.231,0.585,-0.250
-0.149,0.265,-1.773,6.896,0.706,-0.217
-0.146,0.285,-1.816,6.532,0.792,-0.190
-0.145,0.304,-1.854,6.137,0.847,-0.168
-0.141,0.322,-1.891,5.715,0.874,-0.151
-0.137,0.337,-1.925,5.270,0.875,-0.140
-0.131,0.351,-1.952,4.804,0.854,-0.134
-0.124,0.364,-1.976,4.320,0.821,-0.131
-0.115,0.378,-1.999,3.822,0.782,-0.132
-0.103,0.396,-2.017,3.312,0.742,-0.136
-0.091,0.415,-2.031,2.795,0.702,-0.143
-0.078,0.435,-2.038,2.272,0.667,-0.152
-0.067,0.457,-2.041,1.746,0.637,-0.163
-0.055,0.477,-2.034,1.221,0.612,-0.175
-0.026,0.536,-1.904,-0.998,0.515,-0.208
-0.024,0.544,-1.859,-1.479,0.478,-0.213
-0.023,0.545,-1.806,-1.944,0.436,-0.218
-0.023,0.545,-1.753,-2.388,0.394,-0.221
-0.023,0.543,-1.699,-2.811,0.353,-0.225
-0.021,0.538,-1.640,-3.208,0.318,-0.228
-0.020,0.535,-1.583,-3.581,0.292,-0.230
-0.017,0.535,-1.525,-3.930,0.277,-0.232
-0.013,0.535,-1.470,-4.256,0.272,-0.234
-0.011,0.540,-1.417,-4.557,0.281,-0.234
-0.009,0.542,-1.364,-4.836,0.300,-0.234
-0.005,0.545,-1.307,-5.092,0.330,-0.232
-0.005,0.544,-1.253,-5.328,0.375,-0.230
-0.009,0.538,-1.197,-5.546,0.421,-0.231
-0.010,0.539,-1.146,-5.745,0.464,-0.231
-0.008,0.543,-1.095,-5.923,0.511,-0.226
-0.004,0.551,-1.026,-6.134,0.584,-0.212
-0.009,0.563,-0.801,-6.635,0.808,-0.148
-0.010,0.564,-0.755,-6.714,0.848,-0.133
-0.010,0.565,-0.705,-6.780,0.886,-0.117

0.203,1.114,0.661,0.147,0.960,-0.206
0.206,1.128,0.698,0.188,0.955,-0.208
0.197,1.118,0.741,0.243,0.946,-0.213
0.182,1.088,0.785,0.310,0.934,-0.219
0.161,1.052,0.831,0.385,0.916,-0.229
0.136,1.019,0.874,0.471,0.884,-0.237
0.109,0.994,0.915,0.568,0.830,-0.247
0.080,0.974,0.954,0.678,0.746,-0.259
0.046,0.960,0.989,0.798,0.627,-0.272
0.011,0.950,1.019,0.934,0.467,-0.288
-0.020,0.939,1.044,1.086,0.271,-0.308
-0.047,0.924,1.063,1.258,0.049,-0.327
-0.070,0.901,1.076,1.453,-0.189,-0.344
-0.087,0.871,1.087,1.669,-0.431,-0.358
-0.100,0.840,1.095,1.902,-0.661,-0.365
-0.109,0.815,1.104,2.152,-0.868,-0.364
-0.119,0.802,1.105,2.417,-1.055,-0.357
-0.130,0.793,1.104,2.698,-1.225,-0.344
-0.145,0.781,1.098,2.994,-1.393,-0.327
-0.164,0.762,1.088,3.304,-1.569,-0.304
-0.183,0.735,1.075,3.626,-1.760,-0.277
-0.206,0.699,1.056,3.958,-1.970,-0.244
-0.230,0.658,1.029,4.298,-2.201,-0.206
-0.304,0.508,0.835,5.804,-3.411,-0.073
-0.306,0.476,0.773,6.152,-3.673,-0.063
-0.308,0.440,0.707,6.494,-3.911,-0.060
-0.307,0.398,0.634,6.830,-4.121,-0.064
-0.304,0.357,0.557,7.158,-4.295,-0.074
-0.300,0.317,0.476,7.476,-4.440,-0.090
-0.294,0.280,0.392,7.783,-4.554,-0.112
-0.286,0.249,0.304,8.075,-4.638,-0.133
-0.279,0.226,0.210,8.350,-4.697,-0.156
-0.274,0.211,0.112,8.602,-4.737,-0.181
-0.267,0.198,0.008,8.828,-4.755,-0.205
-0.260,0.188,-0.102,9.025,-4.749,-0.231
-0.253,0.181,-0.217,9.191,-4.709,-0.256
-0.245,0.177,-0.343,9.328,-4.628,-0.281
-0.231,0.176,-0.474,9.436,-4.500,-0.302
-0.227,0.195,-0.597,9.508,-4.323,-0.310
-0.238,0.192,-0.725,9.534,-4.127,-0.300
-0.252,0.179,-0.858,9.528,-3.911,-0.278
-0.314,0.097,-1.403,9.174,-2.651,-0.089
-0.309,0.054,-1.538,9.044,-2.293,-0.031
-0.289,0.016,-1.645,8.919,-1.832,0.009
-0.255,0.011,-1.728,8.782,-1.312,0.051
-0.267,-0.005,-1.815,8.613,-0.789,0.105
-0.270,-0.001,-1.880,8.413,-0.297,0.150
-0.257,0.020,-1.938,8.168,0.138,0.195
-0.261,0.055,-1.990,7.862,0.483,0.277
-0.280,0.067,-2.026,7.514,0.724,0.351
-0.278,0.088,-2.062,7.111,0.871,0.414
-0.275,0.097,-2.098,6.658,0.930,0.473
-0.264,0.110,-2.139,6.165,0.930,0.511
-0.235,0.136,-2.177,5.639,0.899,0.527
-0.196,0.173,-2.215,5.084,0.863,0.527
-0.156,0.214,-2.251,4.504,0.833,0.514
-0.118,0.252,-2.284,3.908,0.816,0.490
-0.084,0.285,-2.308,3.300,0.818,0.458
-0.058,0.309,-2.319,2.683,0.835,0.417
-0.038,0.327,-2.320,2.059,0.859,0.371
-0.019,0.343,-2.310,1.434,0.879,0.320
-0.002,0.355,-2.287,0.807,0.894,0.265
0.039,0.384,-2.109,-1.796,0.786,0.012
0.044,0.380,-2.055,-2.351,0.751,-0.048
0.048,0.376,-1.996,-2.882,0.725,-0.107
0.051,0.374,-1.937,-3.386,0.711,-0.164
0.053,0.373,-1.877,-3.862,0.711,-0.219
0.056,0.370,-1.818,-4.310,0.726,-0.271
0.056,0.370,-1.757,-4.729,0.755,-0.321
0.053,0.370,-1.695,-5.121,0.798,-0.367
0.050,0.368,-1.632,-5.488,0.855,-0.410
0.046,0.366,-1.571,-5.830,0.923,-0.450
0.037,0.366,-1.507,-6.150,0.996,-0.488
0.026,0.364,-1.444,-6.449,1.072,-0.524
0.015,0.361,-1.380,-6.728,1.144,-0.556
0.003,0.363,-1.319,-6.990,1.209,-0.582
-0.008,0.369,-1.258,-7.232,1.265,-0.603
-0.016,0.379,-1.193,-7.461,1.312,-0.619
-0.025,0.384,-1.130,-7.674,1.354,-0.627
-0.035,0.393,-1.064,-7.871,1.392,-0.629

0.046,0.935,0.931,-1.299,0.103,0.131
0.046,0.945,0.912,-1.074,-0.001,0.109
0.047,0.950,0.890,-0.858,-0.100,0.090
0.049,0.954,0.873,-0.718,-0.162,0.082
0.052,0.961,0.844,-0.518,-0.247,0.073
0.054,0.970,0.812,-0.328,-0.322,0.071
0.056,0.981,0.777,-0.149,-0.391,0.071
0.057,0.991,0.739,0.017,-0.451,0.073
0.059,1.004,0.702,0.168,-0.506,0.078
0.060,1.014,0.664,0.303,-0.552,0.083
0.062,1.025,0.626,0.424,-0.590,0.086
0.063,1.037,0.588,0.527,-0.618,0.088
0.065,1.051,0.549,0.615,-0.639,0.090
0.069,1.061,0.510,0.687,-0.652,0.090
0.072,1.068,0.472,0.745,-0.661,0.093
0.077,1.074,0.436,0.789,-0.664,0.096
0.081,1.077,0.404,0.821,-0.661,0.101
0.086,1.078,0.370,0.839,-0.651,0.106
0.090,1.082,0.338,0.847,-0.635,0.112
0.095,1.084,0.306,0.846,-0.611,0.116
0.099,1.084,0.275,0.835,-0.581,0.120
0.101,1.082,0.249,0.818,-0.546,0.121
0.102,1.080,0.225,0.794,-0.512,0.121
0.103,1.077,0.201,0.764,-0.478,0.120
0.104,1.075,0.179,0.728,-0.446,0.117
0.107,1.074,0.158,0.690,-0.413,0.111
0.110,1.071,0.142,0.647,-0.378,0.104
0.112,1.043,0.077,0.445,-0.203,0.064
0.110,1.038,0.066,0.397,-0.166,0.053
0.108,1.032,0.058,0.350,-0.134,0.043
0.107,1.028,0.051,0.305,-0.105,0.033
0.106,1.021,0.044,0.260,-0.079,0.026
0.105,1.017,0.039,0.216,-0.053,0.019
0.105,1.015,0.034,0.173,-0.029,0.015
0.103,1.011,0.031,0.131,-0.005,0.013
0.102,1.009,0.027,0.090,0.016,0.013
0.100,1.006,0.024,0.053,0.036,0.015
0.100,1.001,0.024,0.016,0.051,0.019
0.099,0.998,0.026,-0.019,0.064,0.024
0.098,0.993,0.027,-0.053,0.073,0.032
0.097,0.989,0.030,-0.085,0.078,0.040
0.097,0.986,0.031,-0.116,0.081,0.050
0.097,0.983,0.034,-0.145,0.082,0.059
0.098,0.981,0.039,-0.172,0.083,0.067
0.101,0.978,0.041,-0.198,0.084,0.074
0.103,0.976,0.044,-0.221,0.083,0.081
0.105,0.974,0.045,-0.244,0.082,0.085
0.108,0.974,0.049,-0.263,0.082,0.087
0.111,0.971,0.052,-0.281,0.085,0.087
0.116,0.969,0.054,-0.298,0.093,0.086
0.121,0.967,0.057,-0.313,0.104,0.082
0.125,0.966,0.063,-0.327,0.121,0.078
0.129,0.966,0.067,-0.336,0.134,0.073
0.129,0.969,0.073,-0.350,0.153,0.064
0.129,0.973,0.079,-0.364,0.171,0.053
0.127,0.974,0.085,-0.377,0.184,0.039
0.124,0.976,0.117,-0.419,0.212,-0.024
0.123,0.977,0.122,-0.424,0.215,-0.036
0.121,0.977,0.127,-0.427,0.217,-0.046
0.118,0.979,0.134,-0.429,0.220,-0.055
0.116,0.981,0.138,-0.430,0.221,-0.063
0.113,0.986,0.145,-0.431,0.220,-0.070
0.109,0.991,0.150,-0.430,0.215,-0.078
0.106,0.996,0.156,-0.432,0.204,-0.083
0.105,0.999,0.162,-0.431,0.193,-0.087
0.102,1.000,0.167,-0.431,0.182,-0.089
0.100,1.000,0.173,-0.431,0.176,-0.088
0.097,1.000,0.179,-0.430,0.170,-0.086
0.098,1.001,0.183,-0.428,0.167,-0.083
0.098,1.010,0.191,-0.426,0.168,-0.080
0.095,1.007,0.195,-0.425,0.165,-0.074
0.096,1.010,0.198,-0.424,0.162,-0.069
0.097,1.013,0.204,-0.421,0.158,-0.061
0.097,1.012,0.206,-0.416,0.155,-0.050
0.097,1.011,0.208,-0.408,0.155,-0.040
0.099,1.010,0.215,-0.398,0.160,-0.032
0.102,1.009,0.221,-0.387,0.166,-0.024
0.104,1.006,0.227,-0.374,0.176,-0.019
0.104,1.005,0.233,-0.358,0.187,-0.015
0.099,0.983,0.266,-0.269,0.152,-0.027

0.150,1.103,0.740,0.441,0.679,0.057
0.159,1.097,0.791,0.529,0.732,0.068
0.165,1.090,0.842,0.635,0.788,0.078
0.170,1.084,0.896,0.760,0.841,0.086
0.170,1.073,0.947,0.901,0.893,0.093
0.163,1.055,0.999,1.061,0.935,0.098
0.150,1.029,1.047,1.243,0.958,0.102
0.129,0.998,1.094,1.447,0.954,0.104
0.105,0.962,1.137,1.674,0.924,0.107
0.075,0.925,1.175,1.921,0.861,0.111
0.042,0.889,1.204,2.191,0.760,0.114
0.011,0.852,1.228,2.483,0.617,0.117
-0.025,0.810,1.242,2.795,0.434,0.122
-0.047,0.781,1.257,3.124,0.213,0.131
-0.063,0.755,1.254,3.470,-0.028,0.139
-0.076,0.728,1.242,3.841,-0.294,0.149
-0.088,0.694,1.223,4.226,-0.569,0.156
-0.098,0.656,1.194,4.620,-0.846,0.163
-0.105,0.622,1.160,5.018,-1.126,0.166
-0.109,0.596,1.115,5.411,-1.405,0.169
-0.111,0.570,1.061,5.795,-1.686,0.170
-0.109,0.544,0.998,6.168,-1.962,0.169
-0.108,0.513,0.927,6.528,-2.232,0.164
-0.109,0.479,0.848,6.875,-2.489,0.155
-0.106,0.442,0.762,7.208,-2.727,0.140
-0.102,0.409,0.667,7.527,-2.939,0.119
-0.094,0.376,0.569,7.833,-3.124,0.090
-0.085,0.339,0.460,8.122,-3.272,0.057
-0.074,0.191,-0.025,9.133,-3.595,-0.126
-0.067,0.180,-0.151,9.290,-3.595,-0.168
-0.060,0.173,-0.280,9.417,-3.561,-0.209
-0.054,0.166,-0.412,9.517,-3.491,-0.243
-0.041,0.161,-0.545,9.589,-3.377,-0.271
-0.042,0.166,-0.679,9.626,-3.224,-0.278
-0.057,0.167,-0.798,9.627,-3.046,-0.268
-0.072,0.146,-0.932,9.590,-2.868,-0.246
-0.086,0.119,-1.062,9.532,-2.653,-0.219
-0.090,0.081,-1.184,9.460,-2.376,-0.204
-0.091,0.053,-1.296,9.371,-2.044,-0.197
-0.095,0.043,-1.393,9.256,-1.685,-0.195
-0.103,0.048,-1.482,9.112,-1.326,-0.196
-0.105,0.066,-1.561,8.931,-0.997,-0.198
-0.109,0.087,-1.639,8.710,-0.707,-0.190
-0.108,0.125,-1.696,8.439,-0.471,-0.159
-0.143,0.129,-1.765,8.125,-0.303,-0.106
-0.148,0.167,-2.013,6.344,-0.040,0.059
-0.122,0.190,-2.064,5.863,-0.007,0.077
-0.097,0.215,-2.110,5.363,0.043,0.089
-0.073,0.243,-2.149,4.844,0.106,0.097
-0.052,0.270,-2.182,4.313,0.177,0.100
-0.036,0.296,-2.208,3.771,0.250,0.100
-0.024,0.318,-2.222,3.218,0.321,0.095
-0.016,0.337,-2.226,2.657,0.386,0.086
-0.010,0.353,-2.220,2.091,0.440,0.073
-0.005,0.370,-2.208,1.523,0.478,0.056
-0.001,0.385,-2.184,0.957,0.499,0.035
0.002,0.396,-2.151,0.395,0.507,0.010
0.005,0.401,-2.114,-0.159,0.504,-0.018
0.011,0.405,-2.069,-0.698,0.493,-0.048
0.013,0.409,-2.019,-1.221,0.471,-0.080
0.014,0.412,-1.963,-1.723,0.447,-0.113
0.014,0.410,-1.902,-2.203,0.425,-0.147
0.014,0.409,-1.838,-2.658,0.407,-0.183
0.013,0.410,-1.772,-3.088,0.395,-0.219
0.011,0.411,-1.704,-3.492,0.391,-0.252
0.007,0.410,-1.637,-3.867,0.390,-0.284
-0.011,0.417,-1.357,-5.186,0.402,-0.379
-0.016,0.426,-1.299,-5.421,0.413,-0.390
-0.021,0.427,-1.241,-5.632,0.431,-0.396
-0.024,0.437,-1.184,-5.821,0.457,-0.398
-0.033,0.440,-1.124,-5.987,0.485,-0.399
-0.037,0.447,-1.068,-6.134,0.510,-0.398
-0.038,0.461,-1.009,-6.260,0.532,-0.387
-0.043,0.478,-0.934,-6.396,0.570,-0.363
-0.052,0.488,-0.877,-6.475,0.602,-0.336
-0.061,0.497,-0.820,-6.534,0.630,-0.305
-0.068,0.505,-0.763,-6.575,0.653,-0.270
-0.073,0.511,-0.706,-6.599,0.673,-0.232
-0.079,0.518,-0.651,-6.607,0.689,-0.190
-0.079,0.529,-0.597,-6.597,0.700,-0.146

0.099,1.130,0.749,-0.610,0.497,-0.017
0.095,1.117,0.799,-0.481,0.487,-0.003
0.091,1.098,0.843,-0.327,0.496,0.009
0.087,1.071,0.886,-0.143,0.514,0.020
0.079,1.042,0.931,0.073,0.534,0.032
0.064,1.012,0.977,0.315,0.547,0.045
0.042,0.974,1.023,0.579,0.538,0.063
0.020,0.944,1.076,0.862,0.491,0.088
0.006,0.921,1.115,1.163,0.416,0.115
-0.010,0.894,1.147,1.492,0.305,0.146
-0.028,0.861,1.177,1.846,0.159,0.179
-0.052,0.813,1.202,2.223,-0.023,0.209
-0.077,0.755,1.212,2.618,-0.238,0.236
-0.092,0.716,1.216,2.890,-0.398,0.253
-0.109,0.664,1.212,3.310,-0.658,0.277
-0.123,0.619,1.200,3.739,-0.941,0.295
-0.132,0.582,1.179,4.168,-1.243,0.306
-0.138,0.552,1.145,4.595,-1.559,0.311
-0.142,0.524,1.100,5.017,-1.887,0.306
-0.145,0.494,1.040,5.430,-2.220,0.293
-0.147,0.456,0.968,5.832,-2.553,0.272
-0.150,0.411,0.883,6.224,-2.881,0.245
-0.154,0.361,0.790,6.605,-3.203,0.214
-0.159,0.310,0.688,6.972,-3.515,0.178
-0.161,0.259,0.577,7.324,-3.810,0.136
-0.123,0.098,-0.036,8.683,-4.672,-0.103
-0.108,0.079,-0.186,8.902,-4.674,-0.158
-0.094,0.069,-0.343,9.091,-4.595,-0.211
-0.083,0.062,-0.503,9.246,-4.439,-0.260
-0.076,0.057,-0.659,9.368,-4.216,-0.302
-0.074,0.050,-0.812,9.455,-3.938,-0.333
-0.079,0.040,-0.959,9.505,-3.615,-0.351
-0.089,0.026,-1.102,9.518,-3.262,-0.353
-0.106,0.011,-1.235,9.495,-2.897,-0.344
-0.123,-0.002,-1.362,9.435,-2.529,-0.319
-0.141,-0.014,-1.478,9.339,-2.168,-0.285
-0.159,-0.018,-1.583,9.202,-1.822,-0.241
-0.174,-0.016,-1.683,9.026,-1.496,-0.189
-0.189,-0.010,-1.778,8.811,-1.196,-0.136
-0.199,-0.000,-1.861,8.558,-0.921,-0.083
-0.204,0.011,-1.940,8.267,-0.661,-0.034
-0.180,0.126,-2.221,6.566,0.227,0.128
-0.165,0.162,-2.267,6.075,0.379,0.149
-0.149,0.201,-2.308,5.550,0.511,0.164
-0.130,0.240,-2.340,4.993,0.622,0.172
-0.112,0.279,-2.366,4.408,0.711,0.175
-0.092,0.316,-2.385,3.799,0.781,0.169
-0.073,0.353,-2.393,3.170,0.829,0.159
-0.057,0.383,-2.392,2.524,0.858,0.142
-0.044,0.409,-2.378,1.870,0.866,0.118
-0.033,0.429,-2.356,1.211,0.855,0.087
-0.022,0.440,-2.322,0.556,0.826,0.051
-0.014,0.442,-2.280,-0.090,0.782,0.014
-0.007,0.442,-2.233,-0.718,0.727,-0.027
0.000,0.440,-2.178,-1.325,0.666,-0.067
0.007,0.438,-2.119,-1.905,0.610,-0.107
0.016,0.438,-2.055,-2.456,0.566,-0.147
0.026,0.438,-1.989,-2.976,0.540,-0.182
0.034,0.439,-1.922,-3.461,0.534,-0.214
0.040,0.443,-1.850,-3.915,0.550,-0.245
0.046,0.446,-1.780,-4.339,0.584,-0.272
0.048,0.451,-1.706,-4.732,0.634,-0.298
0.047,0.471,-1.377,-6.135,0.906,-0.372
0.041,0.473,-1.302,-6.397,0.955,-0.384
0.035,0.476,-1.227,-6.638,0.994,-0.392
0.028,0.476,-1.153,-6.856,1.021,-0.398
0.021,0.474,-1.079,-7.050,1.037,-0.400
0.015,0.472,-1.007,-7.223,1.044,-0.400
0.007,0.476,-0.935,-7.371,1.044,-0.396
0.000,0.476,-0.865,-7.493,1.042,-0.388
-0.005,0.480,-0.791,-7.588,1.044,-0.378
-0.012,0.480,-0.723,-7.656,1.053,-0.361
-0.016,0.478,-0.656,-7.698,1.067,-0.343
-0.016,0.485,-0.589,-7.712,1.090,-0.317
-0.015,0.488,-0.521,-7.699,1.129,-0.283
-0.016,0.492,-0.451,-7.656,1.189,-0.243
-0.019,0.487,-0.381,-7.587,1.269,-0.199
-0.023,0.481,-0.312,-7.492,1.362,-0.155
-0.027,0.475,-0.247,-7.376,1.462,-0.114
-0.029,0.477,-0.181,-7.239,1.567,-0.077

0.172,1.141,0.630,-0.906,0.863,0.109
0.176,1.137,0.679,-0.898,0.926,0.118
0.179,1.127,0.728,-0.880,0.974,0.128
0.176,1.113,0.772,-0.848,1.006,0.140
0.169,1.098,0.817,-0.796,1.013,0.153
0.163,1.077,0.857,-0.722,0.998,0.164
0.156,1.049,0.895,-0.623,0.965,0.171
0.145,1.020,0.930,-0.497,0.921,0.176
0.130,0.990,0.965,-0.346,0.858,0.175
0.114,0.958,0.998,-0.168,0.775,0.170
0.096,0.922,1.028,0.036,0.675,0.162
0.061,0.868,1.048,0.269,0.545,0.152
0.039,0.838,1.093,0.518,0.377,0.145
0.024,0.833,1.105,0.783,0.201,0.135
0.013,0.826,1.113,1.088,-0.010,0.121
-0.001,0.801,1.118,1.429,-0.242,0.105
-0.019,0.752,1.120,1.803,-0.480,0.086
-0.040,0.690,1.113,2.205,-0.718,0.067
-0.060,0.627,1.099,2.633,-0.949,0.050
-0.079,0.575,1.080,3.082,-1.178,0.036
-0.096,0.537,1.049,3.548,-1.410,0.028
-0.112,0.507,1.010,4.025,-1.650,0.024
-0.129,0.475,0.963,4.506,-1.899,0.023
-0.146,0.439,0.908,4.984,-2.152,0.023
-0.162,0.397,0.842,5.453,-2.400,0.024
-0.174,0.354,0.767,5.909,-2.637,0.026
-0.180,0.315,0.686,6.348,-2.860,0.026
-0.198,0.169,0.259,7.999,-3.673,0.010
-0.197,0.143,0.145,8.301,-3.826,0.000
-0.194,0.123,0.024,8.568,-3.958,-0.012
-0.190,0.107,-0.106,8.801,-4.067,-0.027
-0.183,0.096,-0.245,9.000,-4.144,-0.045
-0.170,0.085,-0.393,9.165,-4.172,-0.067
-0.153,0.077,-0.545,9.300,-4.132,-0.089
-0.125,0.069,-0.695,9.408,-4.013,-0.109
-0.101,0.051,-0.852,9.491,-3.808,-0.120
-0.089,0.020,-0.993,9.560,-3.531,-0.125
-0.079,-0.010,-1.127,9.601,-3.187,-0.118
-0.076,-0.028,-1.249,9.614,-2.800,-0.099
-0.073,-0.031,-1.361,9.593,-2.391,-0.067
-0.072,-0.022,-1.462,9.537,-1.971,-0.023
-0.067,-0.002,-1.553,9.441,-1.557,0.031
-0.057,0.025,-1.634,9.301,-1.148,0.095
-0.048,0.060,-1.710,9.114,-0.750,0.166
-0.017,0.206,-1.981,7.643,0.651,0.513
-0.008,0.240,-2.022,7.209,0.823,0.576
0.003,0.275,-2.057,6.738,0.947,0.628
0.016,0.312,-2.085,6.231,1.029,0.667
0.022,0.336,-2.101,5.877,1.064,0.684
0.036,0.375,-2.122,5.320,1.087,0.697
0.053,0.416,-2.140,4.742,1.077,0.695
0.072,0.455,-2.153,4.143,1.043,0.679
0.092,0.494,-2.162,3.530,0.993,0.650
0.113,0.530,-2.166,2.905,0.931,0.611
0.133,0.560,-2.165,2.275,0.862,0.564
0.153,0.586,-2.155,1.644,0.792,0.510
0.171,0.609,-2.139,1.017,0.723,0.450
0.188,0.628,-2.114,0.399,0.662,0.387
0.205,0.641,-2.082,-0.209,0.614,0.322
0.219,0.654,-2.046,-0.797,0.577,0.255
0.231,0.662,-2.002,-1.365,0.549,0.188
0.240,0.665,-1.953,-1.909,0.534,0.121
0.249,0.664,-1.896,-2.426,0.535,0.055
0.252,0.662,-1.834,-2.918,0.550,-0.009
0.251,0.658,-1.766,-3.381,0.575,-0.070
0.250,0.654,-1.694,-3.820,0.608,-0.130
0.245,0.647,-1.623,-4.230,0.645,-0.186
0.239,0.639,-1.550,-4.618,0.681,-0.238
0.209,0.611,-1.219,-6.004,0.773,-0.407
0.204,0.604,-1.148,-6.259,0.783,-0.431
0.201,0.596,-1.082,-6.489,0.798,-0.452
0.198,0.588,-1.010,-6.692,0.816,-0.468
0.193,0.577,-0.943,-6.869,0.841,-0.479
0.188,0.568,-0.874,-7.020,0.872,-0.487
0.182,0.559,-0.806,-7.144,0.908,-0.492
0.180,0.544,-0.744,-7.241,0.957,-0.491
0.178,0.541,-0.679,-7.307,1.017,-0.487
0.169,0.525,-0.611,-7.345,1.088,-0.483
0.163,0.514,-0.547,-7.356,1.160,-0.481
0.158,0.508,-0.479,-7.336,1.240,-0.477

0.028,1.102,0.830,0.512,0.247,0.020
0.026,1.105,0.852,0.670,0.137,0.050
0.020,1.081,0.876,0.858,0.026,0.082
0.009,1.040,0.895,1.067,-0.072,0.115
-0.005,0.993,0.910,1.302,-0.162,0.146
-0.017,0.951,0.922,1.558,-0.250,0.177
-0.027,0.921,0.928,1.833,-0.347,0.206
-0.035,0.899,0.931,2.121,-0.460,0.237
-0.038,0.881,0.931,2.417,-0.592,0.268
-0.037,0.866,0.927,2.716,-0.739,0.300
-0.036,0.852,0.920,3.013,-0.890,0.331
-0.036,0.839,0.906,3.303,-1.044,0.360
-0.036,0.828,0.885,3.586,-1.202,0.382
-0.035,0.816,0.856,3.863,-1.360,0.398
-0.033,0.798,0.821,4.132,-1.521,0.409
-0.030,0.777,0.780,4.395,-1.684,0.415
-0.028,0.751,0.730,4.652,-1.834,0.420
-0.027,0.726,0.676,4.904,-1.985,0.422
-0.025,0.704,0.620,5.150,-2.135,0.421
-0.025,0.683,0.559,5.389,-2.281,0.417
-0.026,0.655,0.494,5.623,-2.422,0.408
-0.028,0.624,0.423,5.850,-2.555,0.394
-0.029,0.592,0.349,6.068,-2.679,0.377
-0.028,0.561,0.272,6.277,-2.791,0.359
-0.027,0.533,0.192,6.475,-2.891,0.339
0.004,0.415,-0.192,7.190,-3.095,0.258
0.010,0.385,-0.288,7.320,-3.077,0.241
0.014,0.357,-0.385,7.431,-3.033,0.225
0.017,0.332,-0.483,7.526,-2.965,0.206
0.023,0.312,-0.578,7.600,-2.873,0.190
0.028,0.295,-0.671,7.651,-2.760,0.175
0.030,0.280,-0.766,7.678,-2.624,0.160
0.035,0.268,-0.858,7.682,-2.470,0.147
0.038,0.259,-0.949,7.660,-2.298,0.136
0.041,0.252,-1.036,7.613,-2.114,0.126
0.040,0.244,-1.121,7.542,-1.918,0.118
0.038,0.238,-1.199,7.446,-1.721,0.111
0.034,0.234,-1.269,7.324,-1.527,0.104
0.028,0.232,-1.337,7.176,-1.342,0.098
0.022,0.231,-1.403,7.003,-1.169,0.092
0.018,0.230,-1.462,6.806,-1.009,0.085
0.014,0.229,-1.519,6.583,-0.861,0.079
0.012,0.232,-1.574,6.337,-0.725,0.072
0.008,0.236,-1.628,6.068,-0.602,0.065
0.005,0.240,-1.679,5.778,-0.498,0.056
0.006,0.248,-1.724,5.464,-0.405,0.048
0.010,0.257,-1.768,5.127,-0.324,0.039
0.015,0.266,-1.806,4.773,-0.248,0.031
0.037,0.323,-1.925,3.045,0.057,-0.022
0.041,0.337,-1.935,2.614,0.125,-0.044
0.043,0.354,-1.944,2.174,0.185,-0.068
0.046,0.369,-1.942,1.730,0.241,-0.095
0.049,0.384,-1.937,1.285,0.289,-0.127
0.051,0.397,-1.925,0.836,0.333,-0.159
0.053,0.408,-1.906,0.393,0.372,-0.190
0.053,0.416,-1.880,-0.048,0.407,-0.225
0.054,0.425,-1.852,-0.481,0.436,-0.258
0.054,0.435,-1.820,-0.905,0.458,-0.291
0.055,0.446,-1.781,-1.316,0.473,-0.324
0.058,0.458,-1.739,-1.714,0.485,-0.353
0.062,0.471,-1.696,-2.099,0.499,-0.382
0.066,0.483,-1.651,-2.467,0.515,-0.410
0.071,0.497,-1.602,-2.821,0.536,-0.433
0.074,0.507,-1.553,-3.158,0.564,-0.453
0.075,0.516,-1.504,-3.477,0.597,-0.474
0.074,0.523,-1.448,-3.780,0.632,-0.490
0.070,0.526,-1.397,-4.066,0.666,-0.504
0.064,0.528,-1.344,-4.336,0.696,-0.518
0.047,0.555,-1.127,-5.313,0.769,-0.556
0.045,0.567,-1.080,-5.495,0.785,-0.558
0.045,0.577,-1.032,-5.663,0.808,-0.556
0.043,0.587,-0.983,-5.816,0.838,-0.551
0.041,0.596,-0.937,-5.954,0.875,-0.542
0.038,0.600,-0.891,-6.080,0.915,-0.533
0.038,0.609,-0.843,-6.192,0.957,-0.519
0.035,0.617,-0.793,-6.290,0.999,-0.498
0.029,0.627,-0.743,-6.377,1.045,-0.471
0.024,0.632,-0.695,-6.450,1.091,-0.441
0.016,0.635,-0.643,-6.514,1.132,-0.407
0.013,0.638,-0.591,-6.567,1.166,-0.370

0.229,1.132,0.601,-0.551,1.112,-0.228
0.222,1.129,0.640,-0.537,1.189,-0.265
0.213,1.120,0.679,-0.509,1.248,-0.303
0.201,1.107,0.719,-0.464,1.292,-0.343
0.185,1.086,0.753,-0.399,1.315,-0.381
0.165,1.062,0.782,-0.312,1.315,-0.418
0.144,1.033,0.809,-0.201,1.290,-0.451
0.123,1.004,0.835,-0.069,1.244,-0.480
0.102,0.979,0.862,0.080,1.182,-0.503
0.081,0.960,0.883,0.247,1.111,-0.520
0.061,0.949,0.899,0.427,1.028,-0.532
0.038,0.936,0.913,0.623,0.932,-0.540
0.018,0.932,0.929,0.830,0.825,-0.542
0.004,0.935,0.941,1.042,0.720,-0.540
-0.013,0.935,0.948,1.269,0.600,-0.533
-0.034,0.923,0.958,1.508,0.467,-0.525
-0.058,0.899,0.966,1.756,0.330,-0.511
-0.080,0.868,0.967,2.010,0.189,-0.492
-0.102,0.839,0.965,2.270,0.046,-0.466
-0.124,0.815,0.958,2.533,-0.109,-0.435
-0.142,0.800,0.944,2.801,-0.277,-0.397
-0.156,0.785,0.924,3.075,-0.461,-0.353
-0.171,0.769,0.897,3.352,-0.661,-0.302
-0.203,0.665,0.723,4.576,-1.594,-0.055
-0.209,0.636,0.670,4.851,-1.797,-0.003
-0.213,0.610,0.612,5.119,-1.993,0.043
-0.216,0.584,0.549,5.378,-2.181,0.083
-0.219,0.559,0.482,5.628,-2.365,0.117
-0.221,0.535,0.411,5.864,-2.548,0.146
-0.224,0.514,0.338,6.084,-2.727,0.169
-0.223,0.492,0.259,6.292,-2.899,0.187
-0.220,0.471,0.175,6.483,-3.060,0.202
-0.215,0.452,0.084,6.662,-3.211,0.214
-0.209,0.432,-0.011,6.827,-3.344,0.223
-0.204,0.414,-0.111,6.978,-3.454,0.230
-0.198,0.397,-0.214,7.115,-3.542,0.234
-0.189,0.379,-0.320,7.237,-3.596,0.235
-0.174,0.366,-0.430,7.343,-3.606,0.235
-0.156,0.351,-0.540,7.434,-3.561,0.236
-0.139,0.333,-0.647,7.507,-3.462,0.238
-0.121,0.323,-0.750,7.563,-3.302,0.244
-0.112,0.308,-0.854,7.603,-3.088,0.253
-0.101,0.292,-0.943,7.625,-2.838,0.266
-0.094,0.280,-1.028,7.625,-2.559,0.283
-0.089,0.278,-1.312,7.315,-1.293,0.408
-0.088,0.286,-1.365,7.165,-1.054,0.445
-0.087,0.294,-1.413,6.986,-0.844,0.481
-0.083,0.305,-1.457,6.774,-0.666,0.516
-0.078,0.318,-1.499,6.534,-0.521,0.550
-0.070,0.332,-1.537,6.266,-0.408,0.582
-0.063,0.346,-1.573,5.973,-0.320,0.611
-0.053,0.362,-1.608,5.656,-0.254,0.633
-0.041,0.379,-1.642,5.320,-0.206,0.648
-0.029,0.393,-1.677,4.966,-0.168,0.657
-0.018,0.406,-1.707,4.595,-0.138,0.656
-0.005,0.421,-1.734,4.211,-0.109,0.647
0.009,0.437,-1.759,3.814,-0.078,0.631
0.026,0.457,-1.779,3.408,-0.043,0.608
0.042,0.482,-1.797,2.990,-0.001,0.578
0.056,0.506,-1.813,2.567,0.045,0.542
0.068,0.531,-1.824,2.137,0.095,0.500
0.079,0.551,-1.829,1.702,0.147,0.454
0.086,0.569,-1.826,1.263,0.198,0.404
0.094,0.583,-1.816,0.823,0.251,0.351
0.098,0.593,-1.802,0.382,0.302,0.297
0.100,0.602,-1.781,-0.057,0.345,0.244
0.116,0.645,-1.642,-1.869,0.441,0.026
0.117,0.652,-1.602,-2.255,0.468,-0.021
0.120,0.657,-1.556,-2.627,0.503,-0.068
0.122,0.660,-1.508,-2.981,0.549,-0.113
0.121,0.663,-1.458,-3.319,0.603,-0.156
0.119,0.666,-1.406,-3.641,0.661,-0.200
0.114,0.669,-1.353,-3.945,0.719,-0.242
0.109,0.670,-1.296,-4.232,0.776,-0.282
0.102,0.667,-1.239,-4.504,0.830,-0.319
0.093,0.664,-1.179,-4.758,0.877,-0.352
0.085,0.662,-1.118,-4.997,0.915,-0.382
0.076,0.660,-1.061,-5.217,0.947,-0.409
0.069,0.660,-1.004,-5.421,0.974,-0.430
0.063,0.661,-0.947,-5.611,0.996,-0.448

0.187,1.029,0.740,-0.028,0.449,0.239
0.191,1.022,0.770,0.040,0.400,0.223
0.196,1.013,0.800,0.125,0.344,0.208
0.200,1.006,0.819,0.192,0.303,0.197
0.206,0.992,0.843,0.311,0.244,0.181
0.209,0.971,0.869,0.451,0.185,0.166
0.212,0.944,0.897,0.613,0.130,0.150
0.210,0.916,0.926,0.792,0.085,0.133
0.201,0.893,0.953,0.988,0.039,0.114
0.188,0.874,0.980,1.199,-0.019,0.089
0.174,0.855,1.004,1.426,-0.093,0.061
0.157,0.831,1.027,1.666,-0.189,0.030
0.136,0.802,1.047,1.920,-0.310,-0.002
0.107,0.758,1.057,2.189,-0.459,-0.033
0.090,0.732,1.086,2.470,-0.652,-0.057
0.090,0.731,1.091,2.755,-0.827,-0.079
0.088,0.720,1.084,3.073,-1.013,-0.099
0.084,0.686,1.074,3.423,-1.206,-0.119
0.068,0.628,1.061,3.801,-1.398,-0.140
0.047,0.556,1.041,4.206,-1.591,-0.161
0.021,0.483,1.017,4.629,-1.786,-0.185
-0.003,0.421,0.983,5.067,-1.993,-0.209
-0.027,0.373,0.940,5.513,-2.221,-0.235
-0.048,0.332,0.887,5.961,-2.472,-0.264
-0.070,0.293,0.826,6.407,-2.749,-0.295
-0.089,0.248,0.756,6.844,-3.045,-0.328
-0.147,0.063,0.340,8.528,-4.354,-0.524
-0.144,0.048,0.225,8.845,-4.601,-0.584
-0.138,0.044,0.100,9.129,-4.804,-0.649
-0.124,0.056,-0.032,9.376,-4.950,-0.717
-0.104,0.076,-0.173,9.588,-5.021,-0.788
-0.082,0.095,-0.321,9.763,-5.010,-0.857
-0.062,0.106,-0.472,9.905,-4.904,-0.919
-0.046,0.110,-0.622,10.014,-4.699,-0.971
-0.038,0.103,-0.768,10.090,-4.404,-1.008
-0.041,0.094,-0.905,10.129,-4.036,-1.027
-0.051,0.086,-1.038,10.138,-3.614,-1.030
-0.058,0.087,-1.169,10.112,-3.160,-1.017
-0.059,0.114,-1.286,10.054,-2.679,-0.970
-0.080,0.122,-1.400,9.956,-2.204,-0.892
-0.090,0.135,-1.504,9.827,-1.735,-0.802
-0.112,0.144,-1.595,9.660,-1.267,-0.700
-0.149,0.253,-1.896,8.401,0.451,-0.274
-0.152,0.292,-1.928,8.018,0.664,-0.197
-0.162,0.323,-1.957,7.591,0.801,-0.126
-0.167,0.347,-1.978,7.131,0.871,-0.073
-0.159,0.374,-1.996,6.640,0.884,-0.039
-0.143,0.408,-2.011,6.118,0.861,-0.020
-0.122,0.448,-2.028,5.571,0.801,-0.010
-0.100,0.492,-2.041,5.003,0.715,-0.005
-0.076,0.531,-2.057,4.420,0.610,-0.005
-0.053,0.563,-2.067,3.827,0.499,-0.007
-0.033,0.588,-2.070,3.228,0.394,-0.007
-0.019,0.604,-2.073,2.625,0.297,-0.005
-0.008,0.615,-2.069,2.027,0.210,-0.004
-0.000,0.620,-2.065,1.438,0.135,-0.003
0.007,0.621,-2.054,0.861,0.081,-0.003
0.017,0.615,-2.038,0.301,0.053,-0.004
0.029,0.609,-2.014,-0.233,0.055,-0.006
0.030,0.601,-1.979,-0.743,0.082,-0.007
0.024,0.592,-1.936,-1.229,0.114,-0.012
0.016,0.583,-1.887,-1.690,0.144,-0.019
-0.022,0.539,-1.633,-3.434,0.232,-0.078
-0.030,0.533,-1.572,-3.780,0.242,-0.092
-0.037,0.525,-1.513,-4.104,0.249,-0.103
-0.043,0.518,-1.455,-4.407,0.252,-0.113
-0.047,0.513,-1.401,-4.690,0.256,-0.119
-0.053,0.506,-1.346,-4.954,0.264,-0.122
-0.059,0.497,-1.294,-5.202,0.268,-0.123
-0.065,0.487,-1.242,-5.434,0.266,-0.121
-0.073,0.482,-1.192,-5.652,0.253,-0.118
-0.076,0.482,-1.144,-5.860,0.228,-0.115
-0.073,0.482,-1.100,-6.055,0.193,-0.111
-0.066,0.486,-1.058,-6.236,0.159,-0.101
-0.059,0.491,-1.018,-6.402,0.135,-0.087
-0.054,0.494,-0.978,-6.553,0.125,-0.069
-0.049,0.496,-0.939,-6.688,0.130,-0.048
-0.044,0.496,-0.901,-6.806,0.153,-0.024
-0.040,0.496,-0.859,-6.906,0.194,0.000
-0.025,0.496,-0.670,-7.153,0.544,0.112

0.202,1.026,0.691,1.373,0.564,0.302
0.191,1.012,0.711,1.472,0.593,0.296
0.166,0.980,0.725,1.579,0.593,0.283
0.145,0.949,0.749,1.683,0.560,0.274
0.143,0.964,0.778,1.779,0.503,0.271
0.149,0.988,0.777,1.892,0.449,0.262
0.157,0.993,0.781,2.040,0.377,0.251
0.156,0.967,0.786,2.216,0.298,0.236
0.141,0.915,0.795,2.415,0.227,0.216
0.128,0.876,0.801,2.557,0.181,0.200
0.101,0.817,0.804,2.781,0.105,0.173
0.066,0.765,0.804,3.018,0.009,0.145
0.046,0.740,0.809,3.258,-0.115,0.116
0.029,0.734,0.801,3.500,-0.270,0.095
0.021,0.738,0.785,3.754,-0.463,0.078
0.017,0.729,0.767,4.019,-0.674,0.063
0.011,0.705,0.744,4.289,-0.889,0.048
0.001,0.672,0.715,4.563,-1.097,0.034
-0.004,0.638,0.684,4.838,-1.296,0.018
-0.005,0.610,0.649,5.108,-1.480,0.003
-0.004,0.588,0.614,5.371,-1.648,-0.011
0.001,0.576,0.574,5.624,-1.793,-0.021
0.003,0.572,0.529,5.868,-1.929,-0.031
0.000,0.569,0.487,6.099,-2.061,-0.042
-0.005,0.557,0.436,6.318,-2.190,-0.055
-0.012,0.535,0.381,6.530,-2.325,-0.071
-0.021,0.511,0.328,6.732,-2.463,-0.088
-0.026,0.492,0.270,6.925,-2.607,-0.106
-0.044,0.380,-0.013,7.662,-3.184,-0.215
-0.041,0.358,-0.088,7.805,-3.281,-0.244
-0.038,0.341,-0.169,7.936,-3.352,-0.274
-0.032,0.327,-0.253,8.053,-3.394,-0.304
-0.021,0.312,-0.371,8.187,-3.390,-0.345
-0.007,0.306,-0.466,8.272,-3.334,-0.372
0.003,0.318,-0.552,8.335,-3.233,-0.385
-0.000,0.324,-0.644,8.369,-3.112,-0.380
-0.008,0.325,-0.736,8.378,-2.977,-0.365
-0.008,0.326,-0.830,8.362,-2.818,-0.342
-0.019,0.314,-0.926,8.326,-2.630,-0.312
-0.027,0.307,-1.012,8.274,-2.413,-0.284
-0.029,0.298,-1.105,8.191,-2.176,-0.246
-0.039,0.277,-1.196,8.094,-1.922,-0.204
-0.045,0.255,-1.280,7.991,-1.634,-0.178
-0.041,0.242,-1.352,7.874,-1.312,-0.161
-0.055,0.241,-1.413,7.726,-1.006,-0.131
-0.107,0.242,-1.642,6.831,0.072,0.011
-0.123,0.239,-1.678,6.555,0.217,0.047
-0.135,0.237,-1.713,6.249,0.322,0.080
-0.145,0.239,-1.746,5.918,0.388,0.107
-0.146,0.249,-1.777,5.563,0.425,0.129
-0.147,0.261,-1.807,5.183,0.430,0.143
-0.141,0.279,-1.835,4.782,0.412,0.149
-0.131,0.296,-1.862,4.360,0.382,0.150
-0.119,0.317,-1.889,3.921,0.345,0.144
-0.107,0.338,-1.915,3.467,0.309,0.131
-0.092,0.360,-1.939,3.004,0.279,0.113
-0.078,0.381,-1.958,2.533,0.258,0.093
-0.065,0.398,-1.973,2.056,0.239,0.070
-0.049,0.413,-1.979,1.576,0.229,0.045
-0.033,0.428,-1.980,1.094,0.229,0.017
-0.019,0.442,-1.976,0.612,0.236,-0.011
-0.006,0.454,-1.965,0.132,0.244,-0.038
0.004,0.462,-1.948,-0.345,0.253,-0.067
0.013,0.472,-1.926,-0.815,0.263,-0.098
0.017,0.479,-1.899,-1.276,0.266,-0.129
0.018,0.487,-1.865,-1.728,0.255,-0.162
0.020,0.495,-1.827,-2.170,0.239,-0.194
0.010,0.509,-1.630,-3.922,0.165,-0.338
0.003,0.507,-1.578,-4.282,0.158,-0.372
-0.003,0.506,-1.528,-4.622,0.154,-0.405
-0.009,0.503,-1.479,-4.942,0.156,-0.437
-0.015,0.501,-1.430,-5.242,0.164,-0.467
-0.021,0.500,-1.381,-5.524,0.182,-0.494
-0.024,0.499,-1.332,-5.787,0.208,-0.518
-0.030,0.499,-1.282,-6.034,0.237,-0.537
-0.032,0.503,-1.236,-6.265,0.268,-0.549
-0.031,0.502,-1.191,-6.479,0.305,-0.554
-0.031,0.512,-1.143,-6.679,0.349,-0.551
-0.034,0.517,-1.090,-6.866,0.397,-0.543
-0.035,0.527,-1.043,-7.044,0.437,-0.528

-0.080,0.431,-1.432,6.615,0.000,-0.321
-0.090,0.414,-1.464,6.383,0.131,-0.283
-0.095,0.405,-1.500,6.131,0.231,-0.233
-0.094,0.403,-1.534,5.863,0.306,-0.178
-0.095,0.409,-1.563,5.578,0.365,-0.120
-0.096,0.415,-1.589,5.276,0.407,-0.069
-0.094,0.422,-1.611,4.959,0.431,-0.026
-0.097,0.429,-1.634,4.626,0.434,0.009
-0.091,0.444,-1.651,4.279,0.427,0.027
-0.089,0.457,-1.666,3.916,0.409,0.034
-0.091,0.461,-1.679,3.539,0.365,0.033
-0.087,0.468,-1.690,3.149,0.308,0.021
-0.082,0.473,-1.700,2.750,0.244,0.004
-0.073,0.476,-1.710,2.343,0.175,-0.018
-0.067,0.479,-1.716,1.932,0.106,-0.045
-0.061,0.481,-1.722,1.520,0.043,-0.074
-0.052,0.483,-1.724,1.110,-0.014,-0.107
-0.042,0.485,-1.725,0.703,-0.057,-0.142
-0.035,0.488,-1.724,0.303,-0.088,-0.173
-0.028,0.492,-1.717,-0.089,-0.104,-0.204
-0.010,0.511,-1.618,-1.772,0.001,-0.333
-0.029,0.513,-1.586,-2.107,0.013,-0.351
-0.040,0.522,-1.549,-2.437,0.003,-0.371
-0.051,0.525,-1.510,-2.763,-0.028,-0.386
-0.061,0.527,-1.474,-3.081,-0.080,-0.397
-0.070,0.530,-1.438,-3.393,-0.146,-0.403
-0.077,0.533,-1.404,-3.695,-0.219,-0.405
-0.084,0.536,-1.370,-3.987,-0.294,-0.401
-0.091,0.538,-1.339,-4.268,-0.365,-0.393
-0.096,0.542,-1.308,-4.536,-0.427,-0.380
-0.102,0.547,-1.279,-4.790,-0.475,-0.362
-0.108,0.550,-1.247,-5.031,-0.501,-0.339
-0.117,0.555,-1.216,-5.256,-0.512,-0.313
-0.126,0.554,-1.184,-5.468,-0.510,-0.285
-0.134,0.555,-1.152,-5.665,-0.501,-0.252
-0.151,0.561,-0.990,-6.375,-0.393,-0.036
-0.152,0.568,-0.949,-6.510,-0.357,0.016
-0.147,0.574,-0.910,-6.631,-0.315,0.065
-0.139,0.580,-0.874,-6.739,-0.264,0.110
-0.128,0.581,-0.836,-6.830,-0.198,0.150
-0.118,0.576,-0.800,-6.904,-0.115,0.187
-0.107,0.568,-0.759,-6.960,-0.019,0.221
-0.104,0.563,-0.720,-6.998,0.084,0.251
-0.094,0.558,-0.677,-7.019,0.189,0.277
-0.085,0.553,-0.631,-7.023,0.304,0.299
-0.072,0.551,-0.585,-7.012,0.427,0.318
-0.061,0.544,-0.541,-6.986,0.559,0.337
-0.051,0.539,-0.495,-6.943,0.694,0.353
-0.042,0.535,-0.448,-6.888,0.832,0.368
-0.032,0.535,-0.402,-6.818,0.975,0.378
-0.021,0.537,-0.356,-6.737,1.120,0.385
-0.010,0.542,-0.308,-6.646,1.265,0.388
0.002,0.552,-0.262,-6.547,1.408,0.388
0.023,0.594,-0.049,-6.006,1.936,0.358
0.021,0.604,-0.005,-5.881,1.989,0.344
0.021,0.618,0.041,-5.755,2.020,0.328
0.022,0.633,0.084,-5.629,2.025,0.310
0.022,0.643,0.110,-5.544,2.015,0.297
0.021,0.658,0.151,-5.416,1.982,0.279
0.018,0.670,0.189,-5.289,1.929,0.262
0.015,0.683,0.223,-5.160,1.862,0.242
0.012,0.701,0.253,-5.025,1.782,0.218
0.011,0.721,0.284,-4.884,1.689,0.189
0.014,0.738,0.314,-4.728,1.591,0.159
0.018,0.756,0.342,-4.563,1.496,0.125
0.023,0.771,0.375,-4.386,1.412,0.089
0.029,0.781,0.407,-4.197,1.345,0.054
0.031,0.783,0.435,-4.001,1.295,0.023
0.030,0.784,0.467,-3.797,1.249,-0.003
0.030,0.794,0.498,-3.595,1.215,-0.024
0.030,0.814,0.522,-3.390,1.179,-0.039
0.027,0.834,0.546,-3.182,1.130,-0.048
0.020,0.850,0.568,-2.975,1.065,-0.052
0.013,0.861,0.589,-2.769,0.989,-0.052
0.009,0.870,0.607,-2.569,0.904,-0.048
0.006,0.881,0.620,-2.376,0.810,-0.040
0.003,0.895,0.632,-2.187,0.711,-0.029
0.002,0.910,0.638,-2.004,0.609,-0.016
0.001,0.977,0.646,-1.297,0.171,0.054
0.003,0.990,0.639,-1.154,0.080,0.068

0.146,0.496,-1.282,5.963,0.195,0.407
0.137,0.502,-1.306,5.787,0.395,0.402
0.104,0.520,-1.305,5.573,0.502,0.411
0.064,0.517,-1.318,5.325,0.470,0.425
0.070,0.518,-1.326,5.064,0.429,0.410
0.089,0.516,-1.346,4.787,0.398,0.392
0.100,0.520,-1.369,4.501,0.353,0.378
0.106,0.529,-1.391,4.202,0.299,0.363
0.112,0.541,-1.411,3.892,0.237,0.343
0.117,0.552,-1.433,3.572,0.167,0.317
0.124,0.558,-1.450,3.244,0.090,0.289
0.133,0.562,-1.466,2.910,0.013,0.259
0.146,0.564,-1.483,2.570,-0.057,0.226
0.159,0.566,-1.499,2.228,-0.117,0.193
0.169,0.567,-1.515,1.888,-0.165,0.160
0.178,0.566,-1.526,1.547,-0.202,0.126
0.184,0.565,-1.533,1.210,-0.231,0.090
0.191,0.565,-1.540,0.875,-0.247,0.053
0.197,0.562,-1.543,0.544,-0.251,0.015
0.203,0.560,-1.544,0.218,-0.244,-0.026
0.208,0.559,-1.539,-0.101,-0.226,-0.065
0.212,0.559,-1.531,-0.412,-0.201,-0.104
0.212,0.560,-1.517,-0.717,-0.175,-0.142
0.211,0.562,-1.500,-1.013,-0.147,-0.179
0.195,0.582,-1.394,-2.199,-0.006,-0.322
0.188,0.588,-1.362,-2.450,0.021,-0.351
0.180,0.593,-1.329,-2.691,0.047,-0.379
0.171,0.594,-1.293,-2.924,0.066,-0.407
0.165,0.599,-1.260,-3.149,0.076,-0.432
0.156,0.602,-1.226,-3.361,0.081,-0.452
0.148,0.604,-1.190,-3.564,0.087,-0.467
0.136,0.605,-1.153,-3.757,0.093,-0.480
0.122,0.605,-1.117,-3.941,0.093,-0.491
0.109,0.606,-1.080,-4.117,0.084,-0.497
0.099,0.609,-1.044,-4.285,0.068,-0.498
0.092,0.615,-1.009,-4.445,0.043,-0.496
0.085,0.623,-0.975,-4.599,0.013,-0.487
0.077,0.630,-0.943,-4.745,-0.019,-0.473
0.070,0.637,-0.913,-4.886,-0.054,-0.452
0.064,0.644,-0.881,-5.019,-0.093,-0.429
0.062,0.651,-0.849,-5.144,-0.131,-0.399
0.064,0.659,-0.822,-5.263,-0.167,-0.364
0.067,0.668,-0.794,-5.371,-0.196,-0.324
0.094,0.662,-0.669,-5.733,-0.130,-0.109
0.094,0.659,-0.640,-5.774,-0.080,-0.066
0.093,0.655,-0.611,-5.803,-0.027,-0.027
0.093,0.648,-0.584,-5.819,0.029,0.010
0.094,0.642,-0.552,-5.822,0.086,0.044
0.095,0.637,-0.521,-5.816,0.148,0.072
0.099,0.635,-0.491,-5.798,0.216,0.096
0.104,0.638,-0.464,-5.769,0.295,0.113
0.111,0.641,-0.435,-5.732,0.383,0.123
0.118,0.650,-0.409,-5.685,0.486,0.128
0.125,0.660,-0.382,-5.631,0.606,0.123
0.132,0.672,-0.353,-5.570,0.740,0.110
0.139,0.682,-0.326,-5.502,0.886,0.088
0.146,0.691,-0.296,-5.429,1.043,0.061
0.149,0.695,-0.277,-5.378,1.151,0.039
0.150,0.699,-0.245,-5.299,1.312,0.004
0.149,0.700,-0.213,-5.217,1.467,-0.032
0.148,0.700,-0.178,-5.134,1.612,-0.069
0.145,0.701,-0.146,-5.052,1.743,-0.104
0.142,0.705,-0.112,-4.971,1.852,-0.138
0.140,0.711,-0.077,-4.892,1.942,-0.170
0.127,0.772,0.068,-4.559,2.073,-0.275
0.123,0.783,0.096,-4.491,2.045,-0.289
0.121,0.791,0.124,-4.419,2.005,-0.302
0.116,0.796,0.150,-4.344,1.951,-0.314
0.113,0.803,0.176,-4.265,1.889,-0.326
0.111,0.812,0.202,-4.182,1.824,-0.337
0.108,0.821,0.229,-4.092,1.755,-0.349
0.103,0.824,0.253,-3.995,1.681,-0.361
0.096,0.828,0.276,-3.893,1.602,-0.374
0.090,0.829,0.289,-3.822,1.546,-0.382
0.081,0.833,0.311,-3.709,1.456,-0.396
0.073,0.841,0.332,-3.593,1.358,-0.411
0.068,0.852,0.352,-3.473,1.256,-0.425
0.065,0.864,0.370,-3.348,1.150,-0.435
0.060,0.874,0.386,-3.217,1.041,-0.442
0.057,0.884,0.402,-3.080,0.931,-0.447

0.073,0.976,0.882,0.814,0.600,0.068
0.068,0.970,0.907,0.971,0.608,0.096
0.065,0.961,0.932,1.139,0.608,0.126
0.058,0.951,0.957,1.322,0.600,0.158
0.048,0.936,0.977,1.522,0.580,0.188
0.036,0.919,0.994,1.737,0.546,0.219
0.023,0.897,1.005,1.968,0.497,0.249
0.013,0.872,1.012,2.215,0.432,0.280
0.002,0.842,1.018,2.478,0.350,0.312
-0.009,0.814,1.018,2.753,0.254,0.344
-0.027,0.778,1.007,3.040,0.142,0.377
-0.029,0.764,1.013,3.333,0.014,0.410
-0.033,0.745,1.000,3.627,-0.117,0.443
-0.036,0.733,0.991,3.926,-0.275,0.477
-0.041,0.716,0.973,4.225,-0.437,0.506
-0.046,0.691,0.945,4.525,-0.603,0.526
-0.050,0.661,0.913,4.823,-0.768,0.540
-0.052,0.630,0.881,5.115,-0.933,0.548
-0.049,0.604,0.843,5.398,-1.094,0.553
-0.044,0.583,0.804,5.672,-1.250,0.556
-0.037,0.567,0.759,5.937,-1.404,0.554
-0.031,0.552,0.708,6.194,-1.556,0.551
-0.025,0.528,0.656,6.443,-1.710,0.545
-0.021,0.498,0.603,6.681,-1.860,0.537
-0.018,0.464,0.541,6.911,-2.012,0.528
-0.015,0.428,0.473,7.130,-2.170,0.519
-0.013,0.399,0.407,7.337,-2.336,0.509
0.015,0.336,0.088,8.051,-3.054,0.428
0.026,0.326,0.007,8.171,-3.187,0.393
0.035,0.315,-0.077,8.276,-3.296,0.351
0.045,0.306,-0.165,8.369,-3.371,0.304
0.056,0.296,-0.254,8.449,-3.409,0.252
0.069,0.284,-0.344,8.519,-3.397,0.194
0.080,0.271,-0.436,8.577,-3.334,0.133
0.090,0.258,-0.524,8.622,-3.220,0.073
0.098,0.252,-0.612,8.652,-3.068,0.017
0.104,0.250,-0.696,8.667,-2.885,-0.036
0.124,0.270,-0.778,8.663,-2.679,-0.080
0.122,0.289,-0.861,8.629,-2.450,-0.097
0.115,0.309,-0.939,8.574,-2.232,-0.106
0.105,0.317,-1.013,8.498,-2.011,-0.109
0.096,0.315,-1.087,8.403,-1.787,-0.106
0.087,0.309,-1.152,8.288,-1.559,-0.101
0.080,0.311,-1.218,8.150,-1.333,-0.090
0.070,0.328,-1.278,7.982,-1.128,-0.070
0.062,0.352,-1.336,7.789,-0.944,-0.050
0.062,0.381,-1.390,7.571,-0.767,-0.032
0.058,0.410,-1.439,7.327,-0.614,-0.011
0.031,0.502,-1.607,5.988,-0.186,0.062
0.024,0.515,-1.636,5.619,-0.146,0.069
0.015,0.528,-1.662,5.232,-0.132,0.074
0.009,0.541,-1.683,4.827,-0.144,0.078
0.003,0.555,-1.701,4.406,-0.172,0.080
0.001,0.570,-1.722,3.972,-0.217,0.080
0.003,0.586,-1.739,3.530,-0.267,0.079
0.003,0.600,-1.757,3.080,-0.315,0.081
0.005,0.613,-1.771,2.627,-0.359,0.083
0.005,0.624,-1.783,2.172,-0.396,0.087
0.004,0.631,-1.791,1.717,-0.425,0.092
0.005,0.638,-1.794,1.264,-0.442,0.098
0.007,0.645,-1.791,0.814,-0.450,0.105
0.008,0.652,-1.786,0.368,-0.447,0.118
0.007,0.660,-1.775,-0.069,-0.440,0.132
0.005,0.666,-1.757,-0.499,-0.430,0.149
0.003,0.669,-1.735,-0.917,-0.420,0.168
0.002,0.670,-1.707,-1.324,-0.411,0.188
0.001,0.670,-1.678,-1.717,-0.401,0.210
0.001,0.669,-1.646,-2.095,-0.388,0.229
0.000,0.667,-1.609,-2.459,-0.371,0.247
0.002,0.632,-1.429,-3.852,-0.268,0.291
0.002,0.622,-1.383,-4.129,-0.242,0.294
0.003,0.613,-1.338,-4.391,-0.216,0.297
0.006,0.605,-1.293,-4.634,-0.192,0.298
0.010,0.598,-1.248,-4.862,-0.167,0.299
0.016,0.594,-1.202,-5.075,-0.142,0.299
0.023,0.593,-1.160,-5.271,-0.112,0.299
0.030,0.592,-1.112,-5.451,-0.072,0.298
0.035,0.593,-1.070,-5.616,-0.027,0.298
0.041,0.588,-1.024,-5.765,0.024,0.296
0.047,0.583,-0.983,-5.899,0.077,0.295

0.019,0.446,-1.470,5.816,-0.748,0.225
0.019,0.438,-1.500,5.545,-0.608,0.221
0.023,0.432,-1.526,5.276,-0.460,0.208
0.024,0.429,-1.541,5.011,-0.303,0.186
0.022,0.432,-1.550,4.743,-0.151,0.153
0.021,0.441,-1.556,4.471,-0.011,0.110
0.024,0.455,-1.559,4.191,0.110,0.059
0.037,0.475,-1.559,3.901,0.204,0.007
0.037,0.498,-1.552,3.600,0.277,-0.039
0.034,0.510,-1.545,3.291,0.313,-0.084
0.035,0.521,-1.538,2.973,0.321,-0.129
0.038,0.539,-1.524,2.650,0.317,-0.172
0.019,0.549,-1.507,2.310,0.267,-0.205
0.009,0.561,-1.494,1.965,0.163,-0.241
0.009,0.575,-1.482,1.613,0.055,-0.279
0.008,0.586,-1.478,1.260,-0.065,-0.312
0.011,0.594,-1.473,0.910,-0.181,-0.344
0.013,0.598,-1.474,0.568,-0.281,-0.376
0.015,0.599,-1.473,0.237,-0.360,-0.409
0.016,0.596,-1.471,-0.081,-0.410,-0.440
0.019,0.595,-1.465,-0.387,-0.429,-0.468
0.018,0.595,-1.456,-0.681,-0.425,-0.494
-0.002,0.601,-1.381,-1.829,-0.298,-0.563
-0.011,0.603,-1.359,-2.072,-0.267,-0.569
-0.019,0.604,-1.335,-2.308,-0.238,-0.573
-0.025,0.606,-1.308,-2.536,-0.214,-0.573
-0.031,0.609,-1.281,-2.757,-0.192,-0.570
-0.034,0.614,-1.253,-2.971,-0.169,-0.565
-0.039,0.625,-1.226,-3.179,-0.149,-0.558
-0.043,0.642,-1.196,-3.380,-0.128,-0.546
-0.054,0.648,-1.168,-3.578,-0.115,-0.531
-0.064,0.657,-1.139,-3.773,-0.117,-0.513
-0.075,0.661,-1.109,-3.967,-0.137,-0.492
-0.083,0.665,-1.077,-4.160,-0.177,-0.464
-0.090,0.669,-1.046,-4.352,-0.223,-0.426
-0.096,0.674,-1.020,-4.538,-0.271,-0.381
-0.102,0.678,-0.995,-4.720,-0.318,-0.330
-0.109,0.703,-0.887,-5.433,-0.450,-0.109
-0.101,0.706,-0.863,-5.571,-0.442,-0.066
-0.088,0.706,-0.837,-5.699,-0.402,-0.028
-0.075,0.703,-0.812,-5.814,-0.332,0.005
-0.063,0.700,-0.786,-5.917,-0.236,0.035
-0.049,0.693,-0.753,-6.034,-0.084,0.069
-0.038,0.688,-0.722,-6.108,0.040,0.094
-0.031,0.681,-0.692,-6.171,0.172,0.115
-0.025,0.673,-0.659,-6.224,0.303,0.134
-0.019,0.670,-0.624,-6.267,0.436,0.151
-0.011,0.667,-0.589,-6.301,0.566,0.166
-0.003,0.664,-0.554,-6.326,0.695,0.180
0.006,0.665,-0.518,-6.346,0.823,0.193
0.009,0.667,-0.493,-6.354,0.908,0.199
0.014,0.670,-0.457,-6.360,1.031,0.205
0.017,0.674,-0.419,-6.358,1.148,0.206
0.023,0.673,-0.380,-6.346,1.260,0.203
0.027,0.668,-0.342,-6.326,1.365,0.196
0.032,0.659,-0.304,-6.297,1.467,0.184
0.032,0.629,-0.113,-6.055,1.847,0.084
0.028,0.634,-0.069,-5.985,1.896,0.054
0.021,0.640,-0.026,-5.911,1.931,0.020
0.018,0.650,0.018,-5.833,1.953,-0.015
0.011,0.661,0.060,-5.753,1.965,-0.052
0.005,0.674,0.101,-5.668,1.961,-0.090
0.002,0.690,0.143,-5.580,1.946,-0.131
-0.003,0.703,0.182,-5.486,1.919,-0.169
-0.007,0.709,0.220,-5.385,1.882,-0.203
-0.011,0.714,0.258,-5.277,1.837,-0.234
-0.014,0.718,0.293,-5.163,1.788,-0.261
-0.016,0.721,0.327,-5.038,1.739,-0.279
-0.019,0.722,0.356,-4.906,1.690,-0.293
-0.016,0.733,0.386,-4.768,1.645,-0.300
-0.012,0.750,0.415,-4.624,1.607,-0.300
-0.008,0.768,0.442,-4.474,1.565,-0.295
-0.009,0.785,0.468,-4.313,1.513,-0.286
-0.011,0.798,0.494,-4.146,1.452,-0.275
-0.016,0.808,0.515,-3.975,1.382,-0.264
-0.020,0.816,0.537,-3.799,1.306,-0.251
-0.022,0.847,0.610,-3.013,0.924,-0.175
-0.020,0.860,0.619,-2.832,0.835,-0.152
-0.019,0.874,0.628,-2.653,0.743,-0.130
-0.019,0.889,0.635,-2.478,0.648,-0.109

0.073,1.025,0.874,0.204,1.086,0.026
0.070,1.031,0.917,0.275,1.140,0.036
0.067,1.036,0.960,0.353,1.184,0.048
0.061,1.040,1.000,0.447,1.222,0.060
0.054,1.035,1.036,0.559,1.249,0.070
0.047,1.020,1.073,0.692,1.269,0.082
0.042,0.995,1.108,0.850,1.279,0.099
0.034,0.963,1.138,1.034,1.282,0.121
0.021,0.926,1.164,1.245,1.273,0.150
0.007,0.889,1.188,1.481,1.248,0.182
-0.011,0.851,1.211,1.742,1.200,0.218
-0.025,0.828,1.226,1.926,1.154,0.243
-0.049,0.799,1.245,2.218,1.063,0.280
-0.075,0.771,1.258,2.520,0.946,0.314
-0.101,0.746,1.268,2.831,0.799,0.346
-0.123,0.728,1.274,3.145,0.626,0.376
-0.139,0.713,1.269,3.462,0.431,0.404
-0.150,0.700,1.259,3.781,0.217,0.433
-0.158,0.683,1.243,4.107,-0.009,0.461
-0.163,0.660,1.218,4.434,-0.237,0.491
-0.165,0.631,1.185,4.761,-0.466,0.520
-0.163,0.599,1.147,5.091,-0.692,0.550
-0.158,0.571,1.104,5.418,-0.910,0.582
-0.151,0.547,1.054,5.739,-1.122,0.614
-0.143,0.524,1.000,6.053,-1.329,0.644
-0.141,0.499,0.942,6.356,-1.536,0.670
-0.138,0.475,0.881,6.644,-1.744,0.691
-0.132,0.453,0.815,6.917,-1.961,0.705
-0.088,0.344,0.486,7.923,-2.851,0.681
-0.082,0.316,0.397,8.115,-3.031,0.652
-0.077,0.293,0.308,8.291,-3.198,0.614
-0.070,0.275,0.215,8.451,-3.359,0.568
-0.064,0.262,0.118,8.593,-3.508,0.519
-0.058,0.252,0.024,8.716,-3.656,0.467
-0.058,0.241,-0.078,8.819,-3.795,0.412
-0.055,0.233,-0.177,8.903,-3.927,0.357
-0.049,0.225,-0.280,8.967,-4.036,0.301
-0.042,0.217,-0.385,9.011,-4.108,0.246
-0.033,0.211,-0.494,9.037,-4.129,0.194
-0.022,0.206,-0.605,9.048,-4.089,0.144
-0.007,0.209,-0.713,9.043,-3.973,0.099
0.007,0.216,-0.823,9.021,-3.781,0.060
0.036,0.251,-0.915,8.983,-3.520,0.036
0.025,0.269,-1.021,8.917,-3.226,0.038
0.019,0.283,-1.116,8.835,-2.901,0.042
0.013,0.281,-1.204,8.730,-2.536,0.050
0.008,0.273,-1.286,8.606,-2.142,0.065
0.003,0.268,-1.362,8.465,-1.730,0.089
-0.002,0.270,-1.426,8.304,-1.318,0.121
-0.006,0.281,-1.482,8.122,-0.914,0.159
-0.042,0.351,-1.650,6.942,0.401,0.347
-0.046,0.371,-1.670,6.611,0.497,0.384
-0.031,0.390,-1.686,6.258,0.574,0.408
-0.014,0.408,-1.703,5.882,0.632,0.428
-0.005,0.426,-1.719,5.488,0.653,0.446
0.004,0.448,-1.730,5.076,0.643,0.458
0.011,0.469,-1.739,4.646,0.603,0.461
0.018,0.484,-1.746,4.352,0.565,0.458
0.032,0.509,-1.749,3.899,0.498,0.445
0.045,0.529,-1.754,3.436,0.419,0.427
0.061,0.550,-1.757,2.969,0.337,0.401
0.076,0.566,-1.759,2.500,0.256,0.368
0.089,0.581,-1.754,2.032,0.180,0.330
0.099,0.592,-1.749,1.568,0.110,0.288
0.108,0.599,-1.739,1.108,0.047,0.241
0.115,0.607,-1.726,0.657,-0.005,0.189
0.122,0.611,-1.709,0.213,-0.049,0.134
0.130,0.611,-1.691,-0.217,-0.080,0.074
0.138,0.611,-1.667,-0.632,-0.093,0.015
0.145,0.614,-1.641,-1.029,-0.089,-0.046
0.143,0.612,-1.611,-1.408,-0.079,-0.103
0.138,0.614,-1.577,-1.771,-0.068,-0.159
0.132,0.616,-1.540,-2.118,-0.055,-0.214
0.095,0.621,-1.344,-3.542,-0.024,-0.432
0.084,0.621,-1.301,-3.805,-0.017,-0.470
0.074,0.620,-1.259,-4.054,-0.006,-0.507
0.063,0.620,-1.217,-4.288,0.007,-0.540
0.053,0.623,-1.172,-4.510,0.024,-0.568
0.045,0.621,-1.130,-4.718,0.047,-0.592
0.038,0.627,-1.085,-4.912,0.074,-0.611

0.000,0.460,-1.460,5.520,-0.291,0.441
0.005,0.465,-1.487,5.288,-0.059,0.443
-0.003,0.465,-1.503,5.043,0.147,0.451
-0.014,0.464,-1.518,4.780,0.303,0.461
-0.014,0.478,-1.523,4.501,0.415,0.468
-0.013,0.496,-1.528,4.199,0.473,0.479
-0.039,0.519,-1.523,3.860,0.433,0.502
-0.056,0.544,-1.517,3.493,0.271,0.521
-0.053,0.570,-1.516,3.095,0.072,0.531
-0.042,0.588,-1.528,2.677,-0.161,0.540
-0.021,0.603,-1.549,2.248,-0.399,0.546
0.010,0.616,-1.573,1.820,-0.601,0.548
0.049,0.617,-1.606,1.407,-0.734,0.541
0.098,0.616,-1.637,1.020,-0.749,0.515
0.147,0.618,-1.661,0.659,-0.641,0.478
0.170,0.617,-1.669,0.320,-0.464,0.438
0.175,0.615,-1.659,-0.004,-0.260,0.392
0.172,0.611,-1.639,-0.320,-0.053,0.334
0.167,0.606,-1.605,-0.633,0.128,0.269
0.160,0.599,-1.565,-0.943,0.266,0.202
0.152,0.594,-1.523,-1.247,0.355,0.134
0.145,0.590,-1.484,-1.548,0.399,0.065
0.135,0.607,-1.327,-2.785,0.298,-0.202
0.135,0.616,-1.294,-3.048,0.263,-0.259
0.137,0.627,-1.260,-3.299,0.237,-0.311
0.139,0.632,-1.229,-3.539,0.227,-0.361
0.140,0.640,-1.196,-3.764,0.228,-0.405
0.136,0.640,-1.162,-3.978,0.242,-0.446
0.134,0.642,-1.127,-4.179,0.263,-0.482
0.128,0.644,-1.092,-4.365,0.293,-0.510
0.119,0.643,-1.055,-4.539,0.330,-0.530
0.107,0.641,-1.016,-4.697,0.374,-0.544
0.094,0.638,-0.974,-4.843,0.415,-0.553
0.083,0.635,-0.935,-4.975,0.454,-0.559
0.070,0.632,-0.893,-5.097,0.487,-0.561
0.064,0.634,-0.855,-5.207,0.516,-0.559
0.059,0.639,-0.820,-5.305,0.543,-0.552
0.054,0.644,-0.781,-5.395,0.569,-0.541
0.049,0.651,-0.742,-5.473,0.597,-0.527
0.045,0.658,-0.706,-5.542,0.625,-0.512
0.044,0.663,-0.670,-5.604,0.652,-0.494
0.040,0.669,-0.510,-5.779,0.816,-0.368
0.041,0.671,-0.477,-5.792,0.864,-0.336
0.041,0.673,-0.449,-5.794,0.917,-0.304
0.041,0.671,-0.419,-5.785,0.973,-0.274
0.043,0.670,-0.388,-5.770,1.033,-0.244
0.043,0.671,-0.363,-5.749,1.100,-0.216
0.041,0.669,-0.338,-5.718,1.167,-0.193
0.034,0.665,-0.308,-5.681,1.230,-0.172
0.028,0.670,-0.283,-5.640,1.285,-0.158
0.025,0.681,-0.262,-5.596,1.328,-0.147
0.026,0.691,-0.238,-5.545,1.371,-0.143
0.028,0.697,-0.214,-5.489,1.413,-0.140
0.029,0.695,-0.187,-5.429,1.458,-0.138
0.027,0.689,-0.163,-5.363,1.503,-0.138
0.022,0.682,-0.140,-5.293,1.544,-0.138
0.023,0.687,-0.110,-5.225,1.588,-0.140
0.027,0.703,-0.085,-5.157,1.636,-0.144
0.029,0.720,-0.061,-5.084,1.678,-0.146
0.032,0.735,-0.036,-5.007,1.713,-0.148
0.048,0.805,0.080,-4.660,1.834,-0.154
0.046,0.806,0.104,-4.572,1.847,-0.151
0.046,0.811,0.133,-4.481,1.846,-0.146
0.048,0.825,0.161,-4.393,1.843,-0.139
0.051,0.838,0.185,-4.302,1.832,-0.132
0.052,0.843,0.211,-4.207,1.807,-0.123
0.050,0.842,0.238,-4.109,1.769,-0.115
0.045,0.840,0.261,-4.008,1.713,-0.107
0.038,0.837,0.284,-3.906,1.647,-0.102
0.034,0.837,0.310,-3.804,1.574,-0.099
0.032,0.839,0.332,-3.701,1.497,-0.096
0.028,0.843,0.354,-3.600,1.415,-0.094
0.028,0.853,0.374,-3.502,1.330,-0.092
0.028,0.862,0.392,-3.406,1.241,-0.090
0.026,0.869,0.410,-3.310,1.145,-0.089
0.022,0.876,0.423,-3.215,1.047,-0.088
0.018,0.880,0.435,-3.121,0.951,-0.088
0.015,0.881,0.449,-3.029,0.856,-0.089
0.012,0.884,0.460,-2.938,0.761,-0.090
0.007,0.887,0.466,-2.849,0.666,-0.093

-0.092,0.841,0.973,2.380,0.824,0.122
-0.102,0.814,0.988,2.630,0.694,0.179
-0.112,0.789,0.995,2.893,0.553,0.238
-0.122,0.765,0.997,3.165,0.403,0.299
-0.134,0.746,0.995,3.445,0.245,0.359
-0.144,0.727,0.987,3.731,0.076,0.413
-0.154,0.708,0.975,4.022,-0.110,0.464
-0.162,0.687,0.957,4.311,-0.308,0.510
-0.167,0.665,0.933,4.597,-0.519,0.550
-0.170,0.642,0.905,4.879,-0.744,0.589
-0.170,0.619,0.868,5.156,-0.984,0.623
-0.169,0.593,0.827,5.424,-1.235,0.652
-0.167,0.568,0.782,5.683,-1.496,0.677
-0.163,0.545,0.731,5.928,-1.759,0.696
-0.157,0.523,0.676,6.163,-2.024,0.709
-0.146,0.505,0.617,6.382,-2.284,0.714
-0.135,0.494,0.552,6.584,-2.530,0.711
-0.121,0.487,0.486,6.771,-2.756,0.699
-0.105,0.483,0.417,6.939,-2.960,0.679
-0.088,0.480,0.344,7.090,-3.134,0.651
-0.071,0.480,0.270,7.224,-3.275,0.617
-0.052,0.480,0.194,7.342,-3.378,0.579
-0.034,0.482,0.119,7.443,-3.441,0.535
-0.017,0.486,0.040,7.532,-3.468,0.492
0.035,0.487,-0.280,7.761,-3.321,0.335
0.042,0.480,-0.346,7.786,-3.243,0.306
0.048,0.475,-0.413,7.798,-3.145,0.279
0.064,0.489,-0.473,7.793,-3.020,0.260
0.065,0.499,-0.544,7.769,-2.873,0.252
0.063,0.513,-0.615,7.732,-2.715,0.248
0.064,0.517,-0.685,7.684,-2.539,0.244
0.065,0.514,-0.747,7.622,-2.343,0.244
0.060,0.496,-0.810,7.553,-2.142,0.244
0.049,0.482,-0.859,7.468,-1.949,0.249
0.032,0.467,-0.912,7.361,-1.772,0.260
0.019,0.460,-0.969,7.240,-1.618,0.269
0.021,0.467,-1.023,7.103,-1.474,0.281
0.023,0.478,-1.080,6.950,-1.342,0.305
0.018,0.489,-1.129,6.785,-1.223,0.333
0.011,0.494,-1.183,6.609,-1.116,0.358
0.015,0.503,-1.222,6.426,-0.994,0.369
0.004,0.504,-1.264,6.225,-0.881,0.383
-0.002,0.516,-1.300,6.010,-0.783,0.391
-0.007,0.530,-1.335,5.777,-0.696,0.395
-0.013,0.542,-1.368,5.525,-0.626,0.401
-0.018,0.549,-1.398,5.259,-0.570,0.410
-0.014,0.598,-1.510,3.987,-0.239,0.442
-0.015,0.612,-1.528,3.666,-0.151,0.444
-0.017,0.627,-1.541,3.337,-0.066,0.445
-0.021,0.639,-1.551,2.998,0.003,0.443
-0.029,0.649,-1.555,2.649,0.050,0.441
-0.036,0.657,-1.556,2.290,0.064,0.438
-0.045,0.664,-1.553,1.923,0.049,0.436
-0.055,0.669,-1.545,1.546,0.002,0.436
-0.066,0.674,-1.537,1.164,-0.072,0.437
-0.074,0.679,-1.528,0.778,-0.167,0.440
-0.079,0.684,-1.519,0.392,-0.274,0.444
-0.080,0.688,-1.512,0.009,-0.382,0.449
-0.074,0.692,-1.506,-0.367,-0.485,0.458
-0.064,0.696,-1.498,-0.733,-0.577,0.469
-0.051,0.701,-1.489,-1.084,-0.647,0.481
-0.037,0.709,-1.478,-1.423,-0.686,0.492
-0.022,0.716,-1.463,-1.749,-0.697,0.502
-0.010,0.723,-1.444,-2.059,-0.690,0.512
0.004,0.729,-1.421,-2.357,-0.666,0.521
0.066,0.711,-1.274,-3.566,-0.350,0.546
0.075,0.704,-1.235,-3.787,-0.250,0.544
0.084,0.699,-1.197,-3.994,-0.146,0.536
0.094,0.695,-1.156,-4.186,-0.038,0.525
0.103,0.694,-1.112,-4.365,0.070,0.508
0.109,0.686,-1.070,-4.531,0.178,0.486
0.113,0.682,-1.025,-4.685,0.285,0.462
0.116,0.669,-0.981,-4.826,0.383,0.431
0.122,0.660,-0.940,-4.955,0.473,0.398
0.126,0.652,-0.896,-5.069,0.557,0.367
0.129,0.644,-0.851,-5.171,0.636,0.338
0.133,0.639,-0.810,-5.262,0.713,0.309
0.135,0.634,-0.768,-5.340,0.785,0.280
0.139,0.631,-0.724,-5.409,0.852,0.249
0.140,0.626,-0.683,-5.468,0.916,0.217

0.071,0.649,-1.233,5.651,-0.266,-0.424
0.059,0.671,-1.252,5.480,-0.031,-0.418
0.052,0.693,-1.268,5.289,0.145,-0.407
0.028,0.721,-1.256,5.063,0.252,-0.375
