aX,aY,aZ,gX,gY,gZ
1.122,0.584,0.195,1.056,1.813,-2.450
1.138,0.535,0.202,1.033,1.692,-2.799
1.146,0.485,0.208,0.992,1.531,-3.181
1.145,0.429,0.206,0.935,1.343,-3.589
1.135,0.372,0.201,0.871,1.141,-4.010
1.107,0.324,0.193,0.801,0.944,-4.435
1.056,0.287,0.184,0.726,0.752,-4.856
0.989,0.261,0.176,0.642,0.566,-5.267
0.905,0.246,0.165,0.549,0.394,-5.661
0.806,0.240,0.151,0.452,0.238,-6.032
0.696,0.239,0.137,0.352,0.102,-6.373
0.579,0.246,0.124,0.251,-0.013,-6.676
0.452,0.261,0.113,0.153,-0.109,-6.934
0.316,0.283,0.103,0.057,-0.186,-7.142
0.177,0.308,0.094,-0.035,-0.249,-7.300
0.032,0.343,0.089,-0.123,-0.301,-7.406
-0.117,0.386,0.087,-0.210,-0.350,-7.463
-0.272,0.439,0.089,-0.296,-0.399,-7.477
-0.433,0.495,0.096,-0.380,-0.453,-7.452
-1.188,0.759,0.083,-0.684,-0.782,-6.928
-1.353,0.831,0.070,-0.734,-0.878,-6.694
-1.503,0.903,0.055,-0.777,-0.974,-6.406
-1.632,0.975,0.038,-0.812,-1.070,-6.061
-1.747,1.055,0.027,-0.841,-1.173,-5.660
-1.834,1.131,0.014,-0.864,-1.250,-5.214
-1.900,1.200,0.006,-0.879,-1.287,-4.725
-1.951,1.258,0.004,-0.885,-1.285,-4.198
-1.987,1.301,0.009,-0.885,-1.260,-3.642
-2.013,1.337,0.025,-0.880,-1.233,-3.067
-2.024,1.365,0.048,-0.868,-1.219,-2.489
-2.021,1.381,0.075,-0.849,-1.215,-1.921
-2.006,1.376,0.105,-0.818,-1.222,-1.373
-1.978,1.349,0.139,-0.777,-1.239,-0.855
-1.937,1.312,0.172,-0.720,-1.262,-0.368
-1.886,1.271,0.206,-0.652,-1.290,0.082
-1.827,1.230,0.236,-0.575,-1.320,0.495
-1.504,1.093,0.317,-0.156,-1.422,1.880
-1.424,1.067,0.325,-0.048,-1.424,2.115
-1.349,1.043,0.328,0.064,-1.421,2.322
-1.275,1.019,0.326,0.179,-1.411,2.503
-1.207,0.993,0.322,0.296,-1.397,2.661
-1.142,0.966,0.313,0.414,-1.377,2.794
-1.081,0.940,0.300,0.532,-1.349,2.907
-1.023,0.911,0.283,0.649,-1.312,3.003
-0.966,0.880,0.267,0.761,-1.265,3.087
-0.908,0.850,0.246,0.866,-1.210,3.161
-0.848,0.827,0.222,0.963,-1.147,3.230
-0.786,0.811,0.195,1.047,-1.074,3.293
-0.721,0.803,0.170,1.117,-0.990,3.347
-0.658,0.797,0.144,1.172,-0.898,3.390
-0.597,0.788,0.118,1.210,-0.802,3.421
-0.541,0.775,0.094,1.232,-0.705,3.440
-0.484,0.760,0.072,1.238,-0.607,3.446
-0.427,0.747,0.052,1.229,-0.513,3.441
-0.373,0.738,0.039,1.207,-0.421,3.423
-0.321,0.734,0.028,1.170,-0.336,3.393
-0.272,0.732,0.017,1.122,-0.260,3.349
-0.225,0.731,0.009,1.062,-0.194,3.293
-0.065,0.728,-0.008,0.727,-0.010,2.903
-0.037,0.730,-0.010,0.642,0.015,2.788
-0.012,0.733,-0.011,0.558,0.035,2.670
0.009,0.736,-0.006,0.475,0.054,2.548
0.025,0.741,-0.002,0.394,0.069,2.426
0.037,0.747,0.003,0.316,0.082,2.307
0.045,0.755,0.009,0.242,0.092,2.193
0.050,0.762,0.016,0.171,0.097,2.085
0.053,0.771,0.022,0.107,0.099,1.985
0.053,0.779,0.028,0.049,0.099,1.893
0.052,0.788,0.035,-0.005,0.098,1.811
0.051,0.799,0.041,-0.054,0.095,1.740
0.049,0.812,0.046,-0.099,0.092,1.675
0.049,0.828,0.052,-0.142,0.092,1.615
0.049,0.843,0.058,-0.182,0.092,1.564
0.047,0.855,0.064,-0.218,0.093,1.519
0.045,0.864,0.067,-0.249,0.092,1.477
0.046,0.873,0.073,-0.274,0.093,1.441
0.046,0.879,0.078,-0.292,0.098,1.409
0.046,0.883,0.083,-0.306,0.104,1.382
0.045,0.885,0.091,-0.315,0.114,1.361
0.045,0.889,0.098,-0.318,0.123,1.343

1.256,0.615,0.166,0.338,0.846,-1.874
1.339,0.575,0.178,0.314,0.826,-2.188
1.402,0.536,0.204,0.267,0.719,-2.533
1.441,0.509,0.211,0.198,0.542,-2.910
1.459,0.447,0.205,0.123,0.377,-3.329
1.438,0.350,0.189,0.059,0.263,-3.788
1.381,0.241,0.171,0.007,0.218,-4.280
1.295,0.153,0.151,-0.024,0.242,-4.802
1.185,0.096,0.140,-0.037,0.308,-5.340
1.057,0.070,0.132,-0.036,0.393,-5.880
0.912,0.071,0.139,-0.027,0.480,-6.397
0.746,0.094,0.152,-0.026,0.531,-6.866
0.570,0.138,0.159,-0.037,0.535,-7.275
0.391,0.194,0.157,-0.066,0.503,-7.613
0.212,0.258,0.148,-0.109,0.451,-7.877
0.035,0.328,0.128,-0.165,0.394,-8.066
-0.138,0.403,0.102,-0.231,0.338,-8.180
-0.307,0.478,0.073,-0.304,0.285,-8.221
-0.470,0.552,0.048,-0.386,0.238,-8.191
-0.628,0.620,0.031,-0.475,0.196,-8.090
-0.782,0.684,0.022,-0.573,0.145,-7.923
-0.930,0.750,0.024,-0.677,0.073,-7.700
-1.068,0.813,0.030,-0.784,-0.003,-7.429
-1.525,1.001,0.117,-1.149,-0.345,-5.837
-1.595,1.038,0.147,-1.195,-0.428,-5.403
-1.648,1.072,0.181,-1.220,-0.508,-4.958
-1.688,1.098,0.214,-1.221,-0.577,-4.509
-1.717,1.117,0.247,-1.195,-0.631,-4.062
-1.736,1.130,0.278,-1.143,-0.670,-3.623
-1.746,1.136,0.312,-1.064,-0.694,-3.198
-1.748,1.136,0.344,-0.958,-0.703,-2.788
-1.743,1.131,0.374,-0.830,-0.701,-2.398
-1.732,1.119,0.398,-0.682,-0.693,-2.024
-1.715,1.103,0.418,-0.519,-0.681,-1.669
-1.692,1.087,0.433,-0.347,-0.664,-1.329
-1.661,1.074,0.442,-0.170,-0.643,-1.010
-1.628,1.060,0.444,0.007,-0.615,-0.709
-1.590,1.047,0.441,0.183,-0.583,-0.427
-1.550,1.035,0.437,0.351,-0.546,-0.165
-1.512,1.022,0.427,0.508,-0.511,0.078
-1.356,0.945,0.372,1.021,-0.477,0.970
-1.316,0.929,0.356,1.097,-0.504,1.146
-1.273,0.913,0.339,1.157,-0.542,1.313
-1.228,0.898,0.321,1.203,-0.584,1.472
-1.180,0.884,0.305,1.235,-0.631,1.617
-1.129,0.873,0.290,1.256,-0.678,1.750
-1.079,0.861,0.276,1.267,-0.720,1.870
-1.031,0.849,0.261,1.271,-0.758,1.975
-0.982,0.838,0.251,1.269,-0.788,2.067
-0.933,0.830,0.240,1.261,-0.808,2.144
-0.889,0.820,0.228,1.250,-0.819,2.207
-0.847,0.810,0.220,1.237,-0.821,2.255
-0.809,0.802,0.210,1.222,-0.814,2.289
-0.775,0.796,0.202,1.205,-0.801,2.309
-0.746,0.792,0.196,1.187,-0.784,2.317
-0.719,0.788,0.190,1.169,-0.764,2.315
-0.696,0.784,0.187,1.149,-0.744,2.305
-0.676,0.781,0.181,1.130,-0.723,2.290
-0.659,0.778,0.174,1.111,-0.702,2.272
-0.643,0.774,0.168,1.091,-0.682,2.252
-0.627,0.773,0.161,1.072,-0.661,2.234
-0.611,0.774,0.153,1.053,-0.636,2.218
-0.597,0.777,0.144,1.031,-0.609,2.204
-0.536,0.800,0.109,0.923,-0.451,2.184
-0.524,0.802,0.102,0.895,-0.412,2.188
-0.512,0.806,0.098,0.867,-0.374,2.198
-0.500,0.806,0.094,0.839,-0.337,2.210
-0.488,0.805,0.090,0.810,-0.303,2.226
-0.477,0.805,0.086,0.781,-0.272,2.246
-0.467,0.805,0.086,0.752,-0.248,2.266
-0.457,0.805,0.085,0.722,-0.230,2.289
-0.446,0.807,0.082,0.691,-0.221,2.314
-0.433,0.808,0.080,0.659,-0.220,2.341
-0.422,0.807,0.079,0.627,-0.226,2.370
-0.408,0.808,0.080,0.594,-0.237,2.403
-0.393,0.807,0.080,0.558,-0.253,2.435
-0.376,0.806,0.078,0.524,-0.274,2.468
-0.360,0.804,0.078,0.488,-0.300,2.499
-0.342,0.802,0.079,0.454,-0.330,2.526
-0.323,0.803,0.080,0.421,-0.364,2.550

1.081,0.646,0.198,0.447,1.046,-1.769
1.134,0.597,0.203,0.437,0.981,-2.036
1.176,0.549,0.209,0.421,0.881,-2.332
1.210,0.497,0.216,0.397,0.755,-2.659
1.235,0.437,0.223,0.368,0.618,-3.020
1.245,0.377,0.230,0.336,0.477,-3.409
1.243,0.315,0.240,0.302,0.336,-3.823
1.230,0.249,0.247,0.270,0.211,-4.256
1.210,0.182,0.258,0.245,0.102,-4.700
1.182,0.119,0.268,0.222,0.005,-5.143
1.146,0.066,0.273,0.209,-0.079,-5.580
1.103,0.020,0.272,0.202,-0.146,-6.006
1.055,-0.018,0.266,0.205,-0.188,-6.416
0.998,-0.048,0.259,0.220,-0.203,-6.807
0.933,-0.074,0.247,0.250,-0.188,-7.174
0.861,-0.096,0.234,0.294,-0.145,-7.516
0.780,-0.117,0.219,0.350,-0.080,-7.831
0.688,-0.133,0.208,0.416,-0.006,-8.116
0.585,-0.149,0.196,0.490,0.070,-8.369
0.469,-0.160,0.188,0.565,0.136,-8.594
0.337,-0.165,0.179,0.635,0.189,-8.793
0.186,-0.159,0.171,0.693,0.221,-8.971
0.018,-0.139,0.162,0.733,0.227,-9.134
-0.166,-0.102,0.151,0.750,0.198,-9.282
-1.023,0.168,0.048,0.492,-0.380,-9.647
-1.216,0.254,0.008,0.360,-0.571,-9.635
-1.403,0.343,-0.032,0.203,-0.743,-9.575
-1.583,0.435,-0.073,0.027,-0.884,-9.456
-1.754,0.534,-0.110,-0.171,-1.001,-9.269
-1.904,0.638,-0.142,-0.382,-1.107,-9.008
-2.064,0.731,-0.164,-0.596,-1.224,-8.669
-2.219,0.796,-0.174,-0.812,-1.324,-8.270
-2.400,0.872,-0.177,-1.093,-1.413,-7.645
-2.503,0.928,-0.169,-1.290,-1.454,-7.110
-2.591,0.985,-0.151,-1.469,-1.482,-6.527
-2.653,1.033,-0.117,-1.625,-1.505,-5.909
-2.708,1.072,-0.076,-1.750,-1.523,-5.273
-2.742,1.089,-0.031,-1.842,-1.540,-4.629
-2.749,1.103,0.021,-1.901,-1.538,-3.979
-2.722,1.099,0.083,-1.924,-1.489,-3.335
-2.591,1.017,0.334,-1.554,-1.300,-0.707
-2.513,0.995,0.371,-1.380,-1.224,-0.172
-2.428,0.964,0.406,-1.182,-1.112,0.324
-2.342,0.926,0.440,-0.967,-0.978,0.782
-2.254,0.884,0.472,-0.742,-0.843,1.204
-2.163,0.840,0.499,-0.513,-0.714,1.589
-2.072,0.797,0.520,-0.286,-0.600,1.937
-1.983,0.757,0.538,-0.067,-0.506,2.251
-1.893,0.720,0.548,0.143,-0.433,2.532
-1.803,0.687,0.553,0.338,-0.379,2.780
-1.715,0.659,0.551,0.521,-0.342,2.998
-1.629,0.634,0.549,0.687,-0.322,3.187
-1.549,0.611,0.544,0.839,-0.326,3.351
-1.473,0.591,0.536,0.975,-0.347,3.492
-1.400,0.574,0.523,1.097,-0.382,3.610
-1.330,0.558,0.507,1.209,-0.422,3.711
-1.260,0.542,0.489,1.308,-0.462,3.796
-1.196,0.529,0.468,1.396,-0.500,3.867
-1.135,0.517,0.446,1.473,-0.535,3.928
-1.074,0.509,0.421,1.539,-0.564,3.978
-1.014,0.508,0.395,1.593,-0.582,4.020
-0.787,0.537,0.290,1.711,-0.564,4.105
-0.742,0.545,0.269,1.713,-0.546,4.104
-0.700,0.553,0.250,1.708,-0.525,4.093
-0.663,0.559,0.229,1.694,-0.500,4.074
-0.631,0.564,0.208,1.674,-0.475,4.048
-0.598,0.568,0.190,1.648,-0.450,4.014
-0.566,0.569,0.173,1.619,-0.426,3.977
-0.536,0.572,0.158,1.583,-0.403,3.936
-0.506,0.575,0.142,1.544,-0.383,3.893
-0.477,0.579,0.127,1.501,-0.365,3.848
-0.448,0.584,0.112,1.455,-0.348,3.804
-0.419,0.592,0.097,1.406,-0.331,3.758
-0.389,0.599,0.082,1.354,-0.314,3.712
-0.361,0.608,0.066,1.300,-0.293,3.664
-0.335,0.616,0.053,1.244,-0.268,3.616
-0.308,0.624,0.042,1.187,-0.242,3.567
-0.283,0.631,0.032,1.128,-0.209,3.518
-0.261,0.638,0.026,1.068,-0.169,3.467
-0.243,0.644,0.018,1.008,-0.128,3.416

-1.558,0.456,-0.184,0.371,-1.089,-9.207
-1.718,0.565,-0.236,0.167,-1.134,-9.011
-1.881,0.668,-0.282,-0.054,-1.180,-8.739
-2.044,0.759,-0.316,-0.287,-1.225,-8.405
-2.192,0.843,-0.339,-0.529,-1.256,-8.011
-2.292,0.943,-0.350,-0.769,-1.281,-7.558
-2.402,1.035,-0.340,-0.993,-1.327,-7.055
-2.528,1.056,-0.314,-1.205,-1.339,-6.522
-2.631,1.066,-0.294,-1.402,-1.296,-5.949
-2.699,1.101,-0.271,-1.572,-1.222,-5.328
-2.742,1.156,-0.239,-1.719,-1.138,-4.669
-2.770,1.195,-0.193,-1.838,-1.060,-3.989
-2.786,1.212,-0.136,-1.927,-1.004,-3.304
-2.784,1.215,-0.071,-1.985,-0.958,-2.628
-2.763,1.204,-0.006,-2.009,-0.913,-1.971
-2.455,1.035,0.279,-1.668,-0.562,0.648
-2.364,0.993,0.325,-1.515,-0.463,1.100
-2.269,0.949,0.368,-1.343,-0.350,1.512
-2.170,0.906,0.405,-1.153,-0.226,1.889
-2.070,0.863,0.439,-0.948,-0.099,2.232
-1.967,0.821,0.470,-0.734,0.024,2.545
-1.868,0.782,0.496,-0.515,0.140,2.829
-1.773,0.745,0.518,-0.297,0.241,3.085
-1.683,0.709,0.534,-0.083,0.319,3.312
-1.599,0.674,0.543,0.122,0.372,3.513
-1.543,0.652,0.546,0.254,0.392,3.632
-1.463,0.621,0.547,0.441,0.399,3.791
-1.383,0.592,0.542,0.615,0.385,3.928
-1.305,0.568,0.533,0.775,0.359,4.047
-1.227,0.553,0.518,0.916,0.328,4.150
-1.155,0.546,0.503,1.040,0.293,4.238
-1.090,0.543,0.486,1.147,0.251,4.308
-1.031,0.543,0.469,1.236,0.201,4.363
-0.981,0.544,0.450,1.308,0.143,4.404
-0.933,0.541,0.429,1.364,0.076,4.429
-0.891,0.537,0.408,1.408,0.003,4.445
-0.852,0.532,0.386,1.440,-0.072,4.452
-0.814,0.529,0.362,1.462,-0.150,4.452
-0.777,0.528,0.339,1.476,-0.227,4.450
-0.634,0.551,0.233,1.448,-0.519,4.412
-0.604,0.557,0.208,1.424,-0.575,4.397
-0.575,0.562,0.185,1.394,-0.623,4.379
-0.544,0.568,0.160,1.359,-0.665,4.358
-0.515,0.573,0.136,1.321,-0.701,4.334
-0.485,0.578,0.112,1.277,-0.730,4.306
-0.454,0.587,0.088,1.232,-0.751,4.274
-0.422,0.596,0.062,1.184,-0.760,4.238
-0.390,0.605,0.038,1.134,-0.753,4.197
-0.359,0.613,0.013,1.082,-0.732,4.153
-0.327,0.622,-0.007,1.027,-0.697,4.103
-0.298,0.629,-0.026,0.970,-0.648,4.047
-0.269,0.638,-0.043,0.909,-0.589,3.988
-0.242,0.646,-0.059,0.846,-0.519,3.925
-0.216,0.654,-0.074,0.780,-0.444,3.861
-0.189,0.660,-0.087,0.713,-0.364,3.793
-0.166,0.664,-0.097,0.645,-0.282,3.725
-0.147,0.665,-0.103,0.576,-0.201,3.657
-0.128,0.667,-0.107,0.506,-0.123,3.586
-0.108,0.671,-0.113,0.436,-0.051,3.517
-0.090,0.673,-0.116,0.366,0.016,3.449
-0.020,0.693,-0.109,0.071,0.264,3.164
-0.006,0.698,-0.102,0.006,0.313,3.097
0.008,0.702,-0.094,-0.056,0.355,3.030
0.020,0.707,-0.084,-0.116,0.390,2.963
0.030,0.713,-0.076,-0.172,0.414,2.895
0.040,0.719,-0.068,-0.227,0.429,2.827
0.049,0.722,-0.055,-0.276,0.437,2.761
0.055,0.728,-0.044,-0.321,0.441,2.694
0.061,0.734,-0.033,-0.364,0.437,2.628
0.066,0.742,-0.020,-0.401,0.428,2.563
0.067,0.749,-0.008,-0.434,0.413,2.497
0.068,0.755,0.002,-0.463,0.390,2.431
0.069,0.764,0.014,-0.490,0.358,2.366
0.070,0.773,0.026,-0.512,0.318,2.301
0.072,0.782,0.036,-0.531,0.274,2.238
0.074,0.790,0.044,-0.548,0.225,2.176
0.076,0.797,0.053,-0.562,0.176,2.116
0.078,0.803,0.059,-0.574,0.130,2.057
0.084,0.811,0.062,-0.584,0.090,2.000
0.087,0.820,0.065,-0.591,0.057,1.941

-1.308,0.663,-0.194,0.180,-1.120,-7.519
-1.427,0.734,-0.225,0.037,-1.091,-7.321
-1.542,0.803,-0.251,-0.113,-1.050,-7.082
-1.651,0.869,-0.273,-0.266,-1.004,-6.801
-1.754,0.929,-0.290,-0.421,-0.951,-6.482
-1.850,0.981,-0.297,-0.573,-0.892,-6.125
-1.933,1.027,-0.295,-0.719,-0.831,-5.733
-2.009,1.066,-0.285,-0.859,-0.773,-5.310
-2.073,1.099,-0.266,-0.990,-0.719,-4.859
-2.126,1.125,-0.243,-1.108,-0.678,-4.387
-2.167,1.145,-0.213,-1.214,-0.649,-3.897
-2.191,1.157,-0.176,-1.307,-0.633,-3.397
-2.202,1.163,-0.135,-1.380,-0.624,-2.895
-2.196,1.163,-0.092,-1.436,-0.615,-2.397
-2.176,1.155,-0.048,-1.468,-0.604,-1.910
-1.960,1.049,0.160,-1.333,-0.410,-0.061
-1.896,1.016,0.205,-1.241,-0.328,0.284
-1.834,0.982,0.249,-1.129,-0.238,0.596
-1.773,0.947,0.286,-0.999,-0.146,0.877
-1.712,0.913,0.318,-0.856,-0.057,1.129
-1.654,0.881,0.349,-0.700,0.027,1.356
-1.597,0.853,0.377,-0.537,0.101,1.561
-1.541,0.828,0.397,-0.370,0.162,1.747
-1.489,0.806,0.411,-0.202,0.210,1.916
-1.441,0.786,0.419,-0.036,0.244,2.068
-1.395,0.765,0.421,0.127,0.263,2.206
-1.348,0.745,0.419,0.284,0.272,2.333
-1.300,0.727,0.412,0.435,0.276,2.450
-1.252,0.712,0.400,0.579,0.274,2.562
-1.205,0.696,0.387,0.713,0.269,2.669
-1.157,0.682,0.372,0.835,0.264,2.773
-1.110,0.668,0.358,0.946,0.252,2.874
-1.063,0.658,0.345,1.042,0.233,2.973
-1.014,0.649,0.331,1.124,0.209,3.069
-0.968,0.644,0.316,1.190,0.176,3.159
-0.921,0.643,0.299,1.242,0.137,3.238
-0.875,0.641,0.282,1.280,0.095,3.309
-0.832,0.638,0.264,1.307,0.048,3.368
-0.789,0.636,0.248,1.323,-0.003,3.414
-0.640,0.642,0.178,1.280,-0.258,3.462
-0.612,0.648,0.160,1.250,-0.315,3.440
-0.584,0.655,0.142,1.214,-0.369,3.408
-0.560,0.663,0.121,1.175,-0.416,3.367
-0.536,0.671,0.099,1.132,-0.454,3.318
-0.512,0.681,0.078,1.086,-0.482,3.267
-0.489,0.692,0.057,1.037,-0.498,3.212
-0.469,0.703,0.036,0.987,-0.502,3.156
-0.448,0.714,0.015,0.932,-0.493,3.102
-0.429,0.723,-0.004,0.878,-0.469,3.051
-0.412,0.732,-0.022,0.822,-0.435,3.003
-0.396,0.742,-0.037,0.764,-0.390,2.959
-0.381,0.751,-0.053,0.707,-0.333,2.917
-0.368,0.760,-0.067,0.649,-0.267,2.880
-0.355,0.768,-0.080,0.591,-0.197,2.846
-0.345,0.776,-0.090,0.533,-0.122,2.815
-0.336,0.781,-0.098,0.476,-0.046,2.788
-0.326,0.786,-0.101,0.417,0.035,2.766
-0.313,0.793,-0.102,0.357,0.120,2.748
-0.301,0.799,-0.104,0.295,0.209,2.733
-0.288,0.807,-0.104,0.232,0.297,2.720
-0.271,0.814,-0.104,0.167,0.384,2.708
-0.212,0.809,-0.076,-0.113,0.679,2.670
-0.201,0.804,-0.064,-0.173,0.717,2.662
-0.192,0.801,-0.051,-0.231,0.744,2.652
-0.183,0.798,-0.039,-0.286,0.757,2.641
-0.176,0.794,-0.027,-0.338,0.756,2.630
-0.169,0.791,-0.012,-0.386,0.741,2.619
-0.161,0.788,0.002,-0.430,0.712,2.607
-0.153,0.785,0.015,-0.473,0.669,2.596
-0.145,0.785,0.027,-0.513,0.617,2.584
-0.136,0.788,0.043,-0.553,0.558,2.571
-0.126,0.794,0.052,-0.591,0.488,2.556
-0.114,0.801,0.061,-0.628,0.414,2.541
-0.103,0.808,0.072,-0.662,0.335,2.523
-0.093,0.813,0.081,-0.695,0.251,2.504
-0.084,0.818,0.088,-0.727,0.167,2.482
-0.076,0.822,0.096,-0.756,0.084,2.456
-0.068,0.827,0.103,-0.782,0.000,2.429
-0.061,0.834,0.107,-0.806,-0.084,2.399
-0.053,0.842,0.112,-0.826,-0.169,2.366

-1.571,0.500,0.012,0.458,-1.738,-8.543
-1.714,0.565,-0.032,0.342,-1.805,-8.366
-1.854,0.632,-0.073,0.213,-1.846,-8.127
-1.989,0.700,-0.112,0.072,-1.862,-7.830
-2.117,0.772,-0.147,-0.078,-1.855,-7.473
-2.235,0.851,-0.175,-0.235,-1.824,-7.060
-2.344,0.928,-0.196,-0.397,-1.774,-6.594
-2.438,0.998,-0.209,-0.559,-1.705,-6.081
-2.515,1.058,-0.212,-0.717,-1.622,-5.530
-2.580,1.103,-0.204,-0.866,-1.529,-4.953
-2.623,1.136,-0.188,-1.001,-1.434,-4.359
-2.661,1.150,-0.161,-1.121,-1.339,-3.760
-2.697,1.129,-0.113,-1.247,-1.193,-2.978
-2.692,1.105,-0.075,-1.313,-1.071,-2.398
-2.665,1.087,-0.035,-1.349,-0.943,-1.824
-2.386,0.956,0.153,-1.202,-0.301,0.377
-2.297,0.915,0.194,-1.111,-0.135,0.792
-2.207,0.868,0.232,-1.008,0.028,1.173
-2.115,0.822,0.266,-0.894,0.183,1.522
-2.022,0.777,0.301,-0.774,0.326,1.838
-1.930,0.735,0.334,-0.648,0.449,2.124
-1.836,0.696,0.361,-0.524,0.552,2.384
-1.744,0.658,0.383,-0.401,0.634,2.617
-1.653,0.624,0.402,-0.284,0.695,2.828
-1.563,0.593,0.417,-0.172,0.734,3.015
-1.472,0.566,0.427,-0.067,0.759,3.181
-1.384,0.545,0.434,0.033,0.767,3.327
-1.299,0.530,0.440,0.127,0.764,3.449
-1.218,0.518,0.440,0.214,0.753,3.548
-1.144,0.508,0.439,0.296,0.738,3.623
-1.078,0.500,0.436,0.375,0.717,3.674
-1.020,0.494,0.428,0.450,0.696,3.701
-0.968,0.492,0.418,0.523,0.673,3.709
-0.924,0.490,0.410,0.592,0.650,3.696
-0.884,0.489,0.398,0.660,0.629,3.667
-0.852,0.489,0.388,0.725,0.607,3.626
-0.826,0.490,0.376,0.789,0.583,3.576
-0.804,0.492,0.361,0.849,0.558,3.522
-0.783,0.494,0.346,0.908,0.530,3.465
-0.770,0.497,0.335,0.945,0.512,3.429
-0.683,0.549,0.248,1.137,0.393,3.246
-0.667,0.562,0.228,1.158,0.372,3.225
-0.650,0.574,0.206,1.170,0.357,3.208
-0.635,0.585,0.185,1.175,0.343,3.197
-0.620,0.593,0.164,1.171,0.331,3.192
-0.604,0.601,0.144,1.161,0.318,3.192
-0.590,0.611,0.126,1.144,0.303,3.195
-0.576,0.619,0.109,1.121,0.287,3.201
-0.563,0.627,0.093,1.090,0.271,3.210
-0.553,0.632,0.084,1.066,0.261,3.215
-0.538,0.639,0.068,1.028,0.245,3.225
-0.521,0.648,0.054,0.984,0.232,3.233
-0.504,0.658,0.043,0.937,0.221,3.240
-0.487,0.667,0.035,0.884,0.212,3.246
-0.470,0.676,0.026,0.831,0.204,3.250
-0.452,0.682,0.017,0.776,0.199,3.251
-0.435,0.688,0.010,0.720,0.196,3.251
-0.419,0.694,0.004,0.664,0.197,3.249
-0.400,0.698,0.000,0.608,0.201,3.246
-0.381,0.703,-0.005,0.550,0.214,3.240
-0.362,0.709,-0.010,0.494,0.232,3.232
-0.343,0.713,-0.012,0.436,0.254,3.220
-0.325,0.718,-0.014,0.381,0.280,3.208
-0.307,0.721,-0.016,0.325,0.308,3.193
-0.291,0.724,-0.017,0.270,0.339,3.175
-0.277,0.727,-0.016,0.216,0.376,3.153
-0.265,0.729,-0.014,0.162,0.412,3.129
-0.232,0.734,0.002,-0.046,0.540,2.998
-0.227,0.732,0.009,-0.088,0.553,2.964
-0.226,0.735,0.014,-0.129,0.562,2.930
-0.223,0.740,0.019,-0.168,0.567,2.894
-0.217,0.748,0.027,-0.208,0.567,2.857
-0.212,0.757,0.034,-0.245,0.564,2.820
-0.206,0.767,0.040,-0.282,0.558,2.782
-0.200,0.775,0.044,-0.317,0.548,2.745
-0.192,0.783,0.049,-0.350,0.535,2.707
-0.183,0.792,0.051,-0.379,0.523,2.671
-0.172,0.799,0.052,-0.405,0.511,2.636
-0.161,0.806,0.056,-0.430,0.501,2.605
-0.150,0.810,0.057,-0.452,0.498,2.573

-1.596,0.626,-0.049,0.504,-1.525,-8.735
-1.752,0.711,-0.091,0.348,-1.598,-8.541
-1.901,0.796,-0.129,0.165,-1.658,-8.280
-2.041,0.877,-0.165,-0.043,-1.704,-7.950
-2.168,0.960,-0.197,-0.269,-1.734,-7.552
-2.277,1.038,-0.223,-0.508,-1.739,-7.087
-2.365,1.114,-0.243,-0.752,-1.712,-6.561
-2.428,1.190,-0.255,-0.995,-1.664,-5.981
-2.493,1.250,-0.250,-1.232,-1.608,-5.372
-2.553,1.273,-0.231,-1.459,-1.513,-4.753
-2.594,1.268,-0.203,-1.659,-1.383,-4.116
-2.613,1.258,-0.170,-1.826,-1.231,-3.462
-2.610,1.246,-0.129,-1.951,-1.066,-2.796
-2.601,1.227,-0.077,-2.032,-0.895,-2.136
-2.578,1.201,-0.018,-2.071,-0.733,-1.494
-2.302,1.006,0.235,-1.829,-0.136,0.896
-2.206,0.955,0.282,-1.693,-0.004,1.332
-2.105,0.901,0.324,-1.536,0.139,1.727
-2.001,0.846,0.362,-1.360,0.288,2.083
-1.897,0.792,0.399,-1.174,0.433,2.403
-1.794,0.744,0.429,-0.983,0.569,2.688
-1.693,0.704,0.453,-0.793,0.691,2.942
-1.598,0.668,0.475,-0.606,0.792,3.162
-1.504,0.636,0.493,-0.426,0.869,3.352
-1.414,0.608,0.508,-0.253,0.923,3.514
-1.328,0.580,0.517,-0.092,0.954,3.650
-1.246,0.554,0.524,0.060,0.961,3.762
-1.168,0.532,0.525,0.200,0.948,3.854
-1.093,0.519,0.523,0.328,0.916,3.924
-1.024,0.511,0.518,0.444,0.872,3.978
-0.957,0.508,0.512,0.548,0.814,4.012
-0.898,0.507,0.499,0.641,0.748,4.029
-0.845,0.509,0.485,0.724,0.674,4.029
-0.798,0.512,0.468,0.798,0.593,4.012
-0.755,0.516,0.450,0.864,0.511,3.982
-0.720,0.522,0.434,0.923,0.429,3.939
-0.688,0.531,0.420,0.975,0.349,3.887
-0.660,0.541,0.403,1.018,0.270,3.826
-0.635,0.552,0.387,1.057,0.195,3.760
-0.617,0.561,0.373,1.090,0.123,3.692
-0.568,0.625,0.286,1.161,-0.133,3.409
-0.560,0.640,0.263,1.161,-0.175,3.354
-0.552,0.656,0.240,1.156,-0.208,3.305
-0.542,0.669,0.216,1.147,-0.229,3.265
-0.533,0.681,0.194,1.134,-0.237,3.232
-0.524,0.692,0.170,1.117,-0.233,3.209
-0.512,0.702,0.149,1.097,-0.218,3.194
-0.501,0.712,0.128,1.073,-0.192,3.187
-0.489,0.719,0.108,1.047,-0.156,3.188
-0.477,0.725,0.089,1.020,-0.112,3.196
-0.463,0.728,0.072,0.990,-0.060,3.210
-0.448,0.730,0.057,0.958,-0.003,3.226
-0.429,0.732,0.045,0.924,0.057,3.245
-0.410,0.734,0.033,0.886,0.119,3.267
-0.391,0.739,0.021,0.845,0.182,3.288
-0.371,0.741,0.014,0.800,0.243,3.311
-0.349,0.743,0.009,0.753,0.304,3.330
-0.328,0.743,0.005,0.702,0.365,3.347
-0.307,0.743,0.003,0.647,0.424,3.362
-0.287,0.743,0.003,0.589,0.480,3.373
-0.265,0.741,0.003,0.527,0.528,3.379
-0.245,0.740,0.004,0.462,0.568,3.383
-0.225,0.738,0.007,0.396,0.599,3.382
-0.207,0.738,0.012,0.328,0.620,3.377
-0.187,0.737,0.020,0.259,0.632,3.367
-0.168,0.736,0.027,0.188,0.635,3.351
-0.100,0.739,0.057,-0.113,0.542,3.227
-0.090,0.744,0.063,-0.177,0.496,3.184
-0.081,0.747,0.069,-0.236,0.445,3.138
-0.071,0.751,0.074,-0.289,0.386,3.091
-0.061,0.755,0.079,-0.337,0.325,3.042
-0.050,0.758,0.086,-0.380,0.265,2.992
-0.038,0.760,0.091,-0.417,0.210,2.945
-0.025,0.762,0.094,-0.449,0.161,2.896
-0.011,0.766,0.097,-0.474,0.119,2.847
0.003,0.772,0.098,-0.496,0.089,2.798
0.020,0.781,0.099,-0.512,0.069,2.749
0.036,0.791,0.102,-0.524,0.062,2.698
0.050,0.801,0.107,-0.531,0.064,2.644
0.063,0.810,0.114,-0.535,0.073,2.587

0.887,0.746,0.295,0.481,-0.212,-1.842
0.936,0.716,0.299,0.478,-0.283,-2.050
0.983,0.686,0.304,0.469,-0.377,-2.277
1.026,0.651,0.306,0.454,-0.481,-2.531
1.064,0.608,0.306,0.436,-0.584,-2.810
1.095,0.563,0.303,0.417,-0.685,-3.114
1.119,0.516,0.298,0.401,-0.772,-3.443
1.133,0.461,0.291,0.392,-0.827,-3.793
1.132,0.400,0.279,0.394,-0.850,-4.161
1.115,0.335,0.269,0.408,-0.849,-4.541
1.083,0.275,0.261,0.433,-0.831,-4.927
1.039,0.221,0.254,0.469,-0.805,-5.312
0.979,0.169,0.245,0.514,-0.775,-5.686
0.909,0.123,0.232,0.565,-0.748,-6.045
0.832,0.092,0.215,0.618,-0.723,-6.382
0.754,0.073,0.193,0.672,-0.694,-6.697
0.667,0.058,0.167,0.722,-0.660,-6.988
0.572,0.044,0.141,0.765,-0.614,-7.253
0.468,0.038,0.117,0.797,-0.556,-7.489
0.356,0.048,0.093,0.817,-0.488,-7.700
0.235,0.072,0.072,0.819,-0.416,-7.882
0.098,0.106,0.059,0.801,-0.346,-8.039
-0.049,0.149,0.048,0.761,-0.288,-8.171
-0.776,0.361,0.007,0.345,-0.469,-8.398
-0.940,0.410,-0.006,0.209,-0.573,-8.369
-1.092,0.466,-0.024,0.064,-0.677,-8.301
-1.235,0.525,-0.042,-0.090,-0.774,-8.188
-1.371,0.589,-0.059,-0.250,-0.860,-8.030
-1.498,0.654,-0.074,-0.416,-0.931,-7.825
-1.613,0.720,-0.086,-0.585,-0.985,-7.575
-1.718,0.783,-0.096,-0.755,-1.025,-7.281
-1.814,0.838,-0.099,-0.918,-1.050,-6.947
-1.929,0.907,-0.098,-1.127,-1.063,-6.441
-2.003,0.950,-0.090,-1.267,-1.058,-6.022
-2.067,0.985,-0.072,-1.390,-1.041,-5.574
-2.122,1.010,-0.046,-1.493,-1.013,-5.102
-2.174,1.028,-0.017,-1.574,-0.982,-4.611
-2.207,1.047,0.017,-1.627,-0.952,-4.106
-2.223,1.036,0.189,-1.550,-0.795,-1.932
-2.191,1.028,0.223,-1.464,-0.739,-1.468
-2.150,1.016,0.255,-1.356,-0.666,-1.028
-2.103,1.002,0.283,-1.229,-0.578,-0.614
-2.050,0.983,0.313,-1.089,-0.478,-0.227
-1.995,0.963,0.336,-0.938,-0.370,0.132
-1.936,0.942,0.358,-0.777,-0.259,0.463
-1.875,0.920,0.377,-0.612,-0.145,0.767
-1.816,0.896,0.393,-0.443,-0.035,1.046
-1.755,0.869,0.409,-0.274,0.064,1.302
-1.696,0.841,0.418,-0.106,0.149,1.536
-1.638,0.813,0.425,0.057,0.219,1.752
-1.578,0.789,0.427,0.215,0.274,1.950
-1.518,0.767,0.428,0.365,0.313,2.131
-1.459,0.748,0.427,0.509,0.336,2.294
-1.400,0.729,0.420,0.643,0.345,2.443
-1.346,0.709,0.410,0.766,0.339,2.580
-1.292,0.692,0.396,0.879,0.325,2.704
-1.237,0.680,0.381,0.981,0.305,2.819
-1.180,0.674,0.365,1.070,0.288,2.926
-1.126,0.671,0.350,1.146,0.274,3.023
-1.076,0.670,0.335,1.209,0.261,3.113
-0.902,0.663,0.273,1.354,0.170,3.404
-0.866,0.659,0.258,1.364,0.134,3.452
-0.832,0.656,0.245,1.365,0.095,3.494
-0.798,0.656,0.229,1.362,0.050,3.528
-0.765,0.655,0.214,1.352,0.004,3.555
-0.731,0.659,0.195,1.337,-0.040,3.574
-0.699,0.663,0.179,1.316,-0.085,3.588
-0.667,0.668,0.161,1.292,-0.125,3.595
-0.636,0.672,0.146,1.263,-0.158,3.595
-0.607,0.674,0.130,1.230,-0.182,3.593
-0.579,0.677,0.113,1.193,-0.199,3.588
-0.551,0.680,0.096,1.154,-0.209,3.581
-0.522,0.683,0.079,1.111,-0.210,3.575
-0.493,0.684,0.065,1.066,-0.203,3.568
-0.465,0.688,0.046,1.020,-0.190,3.561
-0.436,0.691,0.028,0.971,-0.172,3.552
-0.406,0.693,0.016,0.921,-0.149,3.545
-0.379,0.695,0.003,0.867,-0.120,3.535
-0.356,0.698,-0.006,0.812,-0.089,3.525
-0.335,0.700,-0.014,0.755,-0.056,3.512

-1.471,0.626,-0.023,-0.604,-1.058,-7.873
-1.582,0.696,-0.048,-0.722,-1.064,-7.652
-1.692,0.766,-0.067,-0.846,-1.048,-7.387
-1.794,0.831,-0.082,-0.976,-1.013,-7.083
-1.885,0.889,-0.093,-1.108,-0.959,-6.741
-1.974,0.937,-0.100,-1.235,-0.893,-6.363
-2.053,0.977,-0.097,-1.354,-0.822,-5.951
-2.125,1.012,-0.087,-1.460,-0.749,-5.509
-2.194,1.042,-0.075,-1.548,-0.684,-5.039
-2.248,1.068,-0.056,-1.619,-0.634,-4.542
-2.281,1.087,-0.027,-1.671,-0.589,-4.022
-2.310,1.096,0.005,-1.706,-0.538,-3.487
-2.330,1.105,0.038,-1.720,-0.506,-2.949
-2.325,1.111,0.071,-1.714,-0.479,-2.409
-2.302,1.112,0.104,-1.689,-0.431,-1.879
-2.094,1.014,0.267,-1.339,0.027,0.173
-2.033,0.977,0.308,-1.215,0.151,0.569
-1.971,0.940,0.346,-1.080,0.268,0.932
-1.906,0.900,0.381,-0.939,0.374,1.263
-1.842,0.860,0.414,-0.792,0.460,1.564
-1.776,0.823,0.440,-0.645,0.527,1.838
-1.707,0.788,0.462,-0.502,0.576,2.086
-1.638,0.759,0.479,-0.364,0.602,2.310
-1.568,0.732,0.490,-0.232,0.607,2.513
-1.501,0.708,0.498,-0.107,0.590,2.692
-1.434,0.688,0.502,0.012,0.557,2.851
-1.370,0.669,0.502,0.122,0.513,2.989
-1.308,0.651,0.498,0.226,0.461,3.109
-1.251,0.633,0.493,0.322,0.402,3.212
-1.195,0.619,0.484,0.414,0.341,3.300
-1.140,0.608,0.473,0.499,0.276,3.374
-1.091,0.599,0.464,0.577,0.214,3.435
-1.045,0.591,0.451,0.648,0.152,3.484
-1.003,0.585,0.439,0.715,0.089,3.526
-0.963,0.579,0.428,0.774,0.026,3.556
-0.928,0.572,0.415,0.827,-0.042,3.579
-0.894,0.563,0.402,0.875,-0.110,3.596
-0.859,0.551,0.388,0.916,-0.184,3.610
-0.823,0.543,0.372,0.954,-0.262,3.622
-0.784,0.540,0.355,0.984,-0.338,3.632
-0.614,0.574,0.266,1.055,-0.602,3.635
-0.580,0.585,0.243,1.056,-0.637,3.623
-0.546,0.597,0.220,1.049,-0.661,3.605
-0.515,0.609,0.198,1.038,-0.673,3.581
-0.485,0.623,0.175,1.021,-0.672,3.552
-0.456,0.635,0.152,0.998,-0.660,3.519
-0.430,0.646,0.130,0.972,-0.636,3.482
-0.405,0.654,0.112,0.941,-0.603,3.442
-0.382,0.661,0.096,0.907,-0.561,3.399
-0.362,0.665,0.080,0.871,-0.512,3.352
-0.344,0.672,0.067,0.832,-0.455,3.302
-0.327,0.678,0.053,0.791,-0.395,3.251
-0.311,0.686,0.042,0.747,-0.331,3.200
-0.295,0.695,0.031,0.703,-0.267,3.148
-0.277,0.702,0.021,0.658,-0.203,3.098
-0.261,0.709,0.013,0.610,-0.138,3.050
-0.247,0.717,0.005,0.561,-0.071,3.003
-0.232,0.728,0.000,0.510,-0.004,2.959
-0.218,0.739,-0.005,0.455,0.062,2.918
-0.203,0.750,-0.009,0.399,0.128,2.880
-0.188,0.759,-0.012,0.342,0.194,2.845
-0.173,0.763,-0.012,0.281,0.260,2.812
-0.159,0.764,-0.010,0.221,0.322,2.782
-0.105,0.762,0.022,-0.036,0.513,2.656
-0.095,0.765,0.031,-0.093,0.526,2.622
-0.082,0.767,0.041,-0.147,0.524,2.586
-0.070,0.770,0.051,-0.199,0.509,2.546
-0.058,0.773,0.064,-0.249,0.484,2.502
-0.044,0.774,0.074,-0.296,0.453,2.455
-0.033,0.777,0.086,-0.339,0.417,2.403
-0.023,0.781,0.097,-0.379,0.380,2.347
-0.014,0.787,0.108,-0.414,0.343,2.287
-0.008,0.793,0.117,-0.446,0.302,2.224
-0.004,0.800,0.128,-0.474,0.261,2.159
-0.000,0.807,0.139,-0.498,0.217,2.094
0.002,0.812,0.147,-0.516,0.175,2.027
0.005,0.818,0.152,-0.530,0.134,1.960
0.008,0.822,0.160,-0.538,0.097,1.895
0.011,0.828,0.167,-0.542,0.065,1.829
0.016,0.833,0.172,-0.540,0.040,1.767

-1.295,0.634,-0.189,0.067,-1.517,-6.756
-1.408,0.690,-0.214,-0.048,-1.464,-6.618
-1.518,0.748,-0.236,-0.171,-1.395,-6.444
-1.625,0.804,-0.252,-0.302,-1.315,-6.229
-1.756,0.877,-0.266,-0.487,-1.198,-5.879
-1.848,0.927,-0.273,-0.629,-1.107,-5.570
-1.932,0.968,-0.272,-0.770,-1.013,-5.221
-2.006,1.006,-0.266,-0.908,-0.919,-4.838
-2.069,1.039,-0.252,-1.037,-0.829,-4.424
-2.119,1.063,-0.229,-1.155,-0.746,-3.983
-2.159,1.078,-0.201,-1.258,-0.670,-3.525
-2.187,1.084,-0.164,-1.345,-0.609,-3.053
-2.203,1.082,-0.126,-1.413,-0.560,-2.576
-2.204,1.076,-0.084,-1.461,-0.520,-2.103
-2.193,1.064,-0.040,-1.490,-0.483,-1.641
-2.021,0.967,0.146,-1.369,-0.238,0.122
-1.964,0.936,0.183,-1.288,-0.153,0.457
-1.905,0.906,0.220,-1.190,-0.065,0.764
-1.848,0.876,0.255,-1.078,0.020,1.049
-1.789,0.844,0.284,-0.956,0.098,1.310
-1.730,0.811,0.312,-0.824,0.170,1.550
-1.668,0.781,0.338,-0.684,0.232,1.771
-1.608,0.756,0.359,-0.541,0.280,1.975
-1.548,0.733,0.377,-0.394,0.312,2.163
-1.488,0.711,0.389,-0.249,0.327,2.335
-1.430,0.693,0.398,-0.107,0.329,2.491
-1.375,0.677,0.401,0.027,0.318,2.634
-1.319,0.665,0.400,0.154,0.298,2.762
-1.265,0.656,0.396,0.272,0.275,2.877
-1.212,0.648,0.387,0.382,0.255,2.979
-1.161,0.641,0.377,0.482,0.239,3.069
-1.113,0.633,0.368,0.573,0.227,3.153
-1.067,0.625,0.356,0.653,0.213,3.230
-1.023,0.619,0.344,0.726,0.195,3.300
-0.983,0.613,0.335,0.788,0.172,3.364
-0.943,0.606,0.324,0.842,0.145,3.423
-0.903,0.602,0.311,0.885,0.112,3.475
-0.863,0.601,0.299,0.922,0.072,3.523
-0.824,0.601,0.282,0.949,0.029,3.563
-0.786,0.603,0.268,0.968,-0.018,3.600
-0.629,0.617,0.206,0.970,-0.222,3.669
-0.598,0.622,0.191,0.952,-0.264,3.664
-0.570,0.627,0.176,0.931,-0.305,3.652
-0.540,0.630,0.163,0.905,-0.345,3.633
-0.512,0.634,0.148,0.874,-0.383,3.610
-0.486,0.638,0.135,0.839,-0.418,3.579
-0.460,0.642,0.121,0.801,-0.450,3.544
-0.434,0.646,0.107,0.763,-0.477,3.503
-0.410,0.652,0.094,0.722,-0.497,3.460
-0.388,0.660,0.081,0.679,-0.512,3.415
-0.365,0.669,0.068,0.636,-0.521,3.367
-0.342,0.678,0.056,0.593,-0.524,3.318
-0.318,0.686,0.043,0.551,-0.516,3.269
-0.296,0.693,0.031,0.511,-0.498,3.220
-0.274,0.700,0.022,0.471,-0.467,3.170
-0.253,0.707,0.013,0.434,-0.426,3.120
-0.233,0.713,0.006,0.397,-0.371,3.070
-0.217,0.721,0.000,0.361,-0.310,3.020
-0.201,0.727,-0.005,0.326,-0.242,2.969
-0.188,0.732,-0.008,0.289,-0.171,2.918
-0.174,0.739,-0.007,0.254,-0.100,2.866
-0.163,0.745,-0.005,0.217,-0.030,2.813
-0.137,0.773,0.013,0.059,0.193,2.578
-0.132,0.775,0.017,0.022,0.219,2.525
-0.128,0.776,0.022,-0.012,0.238,2.474
-0.124,0.778,0.025,-0.045,0.250,2.425
-0.121,0.780,0.032,-0.076,0.254,2.380
-0.118,0.783,0.037,-0.105,0.251,2.333
-0.115,0.788,0.043,-0.133,0.238,2.289
-0.112,0.794,0.049,-0.161,0.217,2.247
-0.111,0.804,0.054,-0.186,0.185,2.205
-0.106,0.814,0.059,-0.209,0.146,2.165
-0.100,0.823,0.064,-0.228,0.104,2.126
-0.092,0.832,0.069,-0.246,0.064,2.089
-0.085,0.837,0.073,-0.261,0.026,2.053
-0.078,0.841,0.077,-0.274,-0.009,2.019
-0.071,0.843,0.081,-0.282,-0.040,1.986
-0.064,0.847,0.086,-0.289,-0.068,1.953
-0.057,0.850,0.090,-0.294,-0.095,1.920
-0.051,0.854,0.092,-0.296,-0.117,1.886

-1.526,0.574,0.054,-0.289,-1.173,-7.589
-1.655,0.624,0.039,-0.376,-1.163,-7.380
-1.781,0.677,0.027,-0.469,-1.145,-7.130
-1.900,0.730,0.019,-0.571,-1.126,-6.837
-2.009,0.780,0.013,-0.679,-1.104,-6.501
-2.109,0.830,0.011,-0.790,-1.078,-6.126
-2.196,0.876,0.010,-0.898,-1.051,-5.714
-2.267,0.918,0.017,-1.000,-1.020,-5.268
-2.332,0.956,0.030,-1.091,-0.979,-4.793
-2.381,0.990,0.046,-1.165,-0.940,-4.297
-2.417,1.013,0.066,-1.222,-0.893,-3.785
-2.447,1.024,0.093,-1.257,-0.839,-3.267
-2.467,1.025,0.123,-1.270,-0.782,-2.746
-2.474,1.019,0.156,-1.260,-0.728,-2.227
-2.467,1.007,0.189,-1.228,-0.670,-1.719
-2.445,0.989,0.219,-1.175,-0.611,-1.224
-2.410,0.966,0.250,-1.101,-0.543,-0.747
-2.145,0.844,0.365,-0.603,-0.162,1.043
-2.067,0.814,0.382,-0.465,-0.071,1.385
-1.986,0.782,0.400,-0.325,0.019,1.700
-1.907,0.751,0.413,-0.185,0.105,1.990
-1.830,0.723,0.428,-0.051,0.175,2.256
-1.754,0.695,0.439,0.077,0.218,2.501
-1.680,0.670,0.446,0.197,0.238,2.723
-1.606,0.644,0.450,0.309,0.238,2.923
-1.531,0.621,0.448,0.413,0.225,3.104
-1.457,0.602,0.444,0.509,0.198,3.264
-1.384,0.587,0.437,0.597,0.166,3.403
-1.312,0.576,0.429,0.678,0.132,3.525
-1.245,0.567,0.421,0.752,0.100,3.628
-1.186,0.561,0.412,0.821,0.070,3.714
-1.131,0.554,0.402,0.881,0.043,3.785
-1.082,0.550,0.391,0.937,0.014,3.843
-1.037,0.546,0.379,0.985,-0.017,3.889
-0.992,0.542,0.365,1.028,-0.052,3.924
-0.949,0.540,0.352,1.065,-0.089,3.950
-0.910,0.539,0.337,1.098,-0.129,3.970
-0.873,0.538,0.321,1.128,-0.167,3.983
-0.837,0.538,0.303,1.155,-0.205,3.992
-0.803,0.539,0.286,1.176,-0.242,3.996
-0.768,0.541,0.265,1.193,-0.274,3.996
-0.734,0.544,0.245,1.206,-0.299,3.995
-0.578,0.568,0.158,1.211,-0.285,3.978
-0.544,0.573,0.142,1.199,-0.247,3.973
-0.510,0.576,0.128,1.184,-0.198,3.966
-0.477,0.580,0.111,1.166,-0.142,3.959
-0.445,0.585,0.094,1.143,-0.081,3.948
-0.412,0.588,0.079,1.116,-0.016,3.936
-0.379,0.592,0.067,1.084,0.052,3.920
-0.348,0.595,0.056,1.049,0.120,3.899
-0.318,0.597,0.046,1.009,0.189,3.874
-0.287,0.601,0.039,0.964,0.253,3.844
-0.258,0.605,0.032,0.915,0.313,3.810
-0.233,0.610,0.026,0.861,0.366,3.768
-0.208,0.616,0.022,0.803,0.413,3.722
-0.184,0.623,0.018,0.742,0.451,3.671
-0.160,0.631,0.016,0.678,0.482,3.615
-0.140,0.637,0.014,0.611,0.506,3.555
-0.121,0.644,0.014,0.542,0.520,3.490
-0.105,0.652,0.013,0.470,0.528,3.420
-0.088,0.662,0.014,0.399,0.529,3.347
-0.071,0.673,0.012,0.326,0.524,3.270
-0.054,0.683,0.011,0.250,0.516,3.192
-0.041,0.695,0.012,0.175,0.507,3.110
-0.029,0.708,0.014,0.099,0.492,3.026
-0.018,0.725,0.017,0.024,0.473,2.939
-0.007,0.743,0.021,-0.048,0.449,2.851
0.004,0.760,0.028,-0.118,0.425,2.763
0.032,0.803,0.049,-0.369,0.334,2.400
0.035,0.809,0.056,-0.413,0.325,2.325
0.038,0.816,0.063,-0.449,0.320,2.254
0.042,0.821,0.071,-0.478,0.321,2.187
0.047,0.827,0.078,-0.501,0.326,2.123
0.050,0.832,0.085,-0.518,0.334,2.061
0.053,0.839,0.090,-0.528,0.347,2.003
0.057,0.846,0.097,-0.532,0.364,1.945
0.058,0.854,0.105,-0.532,0.384,1.888
0.060,0.860,0.111,-0.528,0.405,1.833
0.061,0.865,0.119,-0.521,0.427,1.778
0.061,0.868,0.126,-0.511,0.449,1.727

-1.523,0.577,-0.221,0.052,-1.207,-8.472
-1.664,0.657,-0.257,-0.142,-1.228,-8.253
-1.800,0.740,-0.289,-0.353,-1.230,-7.983
-1.930,0.825,-0.315,-0.579,-1.213,-7.663
-2.051,0.906,-0.335,-0.813,-1.176,-7.296
-2.163,0.978,-0.346,-1.053,-1.123,-6.883
-2.266,1.044,-0.348,-1.289,-1.056,-6.429
-2.358,1.098,-0.339,-1.519,-0.978,-5.936
-2.436,1.142,-0.318,-1.730,-0.895,-5.411
-2.500,1.175,-0.287,-1.924,-0.812,-4.856
-2.551,1.199,-0.246,-2.094,-0.730,-4.280
-2.582,1.216,-0.197,-2.236,-0.652,-3.691
-2.599,1.223,-0.143,-2.348,-0.580,-3.097
-2.602,1.217,-0.086,-2.426,-0.515,-2.507
-2.591,1.197,-0.026,-2.472,-0.455,-1.929
-2.353,1.056,0.224,-2.284,-0.029,0.463
-2.278,1.020,0.271,-2.169,0.095,0.899
-2.194,0.983,0.315,-2.042,0.220,1.310
-2.105,0.945,0.356,-1.900,0.346,1.694
-2.010,0.906,0.392,-1.747,0.466,2.055
-1.913,0.866,0.427,-1.590,0.576,2.392
-1.816,0.825,0.461,-1.429,0.667,2.705
-1.719,0.785,0.490,-1.270,0.735,2.994
-1.622,0.747,0.515,-1.111,0.780,3.255
-1.525,0.713,0.535,-0.957,0.798,3.493
-1.432,0.681,0.551,-0.808,0.793,3.702
-1.338,0.653,0.561,-0.664,0.774,3.883
-1.249,0.627,0.568,-0.527,0.744,4.037
-1.164,0.604,0.575,-0.395,0.706,4.164
-1.083,0.582,0.576,-0.268,0.661,4.265
-1.009,0.566,0.574,-0.146,0.611,4.342
-0.940,0.553,0.570,-0.030,0.558,4.395
-0.876,0.545,0.563,0.082,0.503,4.426
-0.817,0.539,0.554,0.187,0.447,4.435
-0.782,0.534,0.547,0.254,0.408,4.430
-0.730,0.533,0.537,0.350,0.348,4.410
-0.685,0.534,0.526,0.438,0.284,4.376
-0.643,0.539,0.515,0.520,0.216,4.327
-0.603,0.544,0.500,0.598,0.148,4.268
-0.465,0.579,0.417,0.878,-0.135,3.887
-0.447,0.589,0.397,0.922,-0.187,3.794
-0.429,0.600,0.377,0.958,-0.232,3.700
-0.411,0.611,0.355,0.989,-0.268,3.608
-0.393,0.623,0.332,1.012,-0.296,3.518
-0.375,0.634,0.308,1.030,-0.313,3.434
-0.358,0.645,0.283,1.042,-0.318,3.354
-0.343,0.655,0.258,1.046,-0.313,3.281
-0.329,0.666,0.236,1.045,-0.298,3.213
-0.312,0.678,0.214,1.037,-0.275,3.150
-0.296,0.688,0.191,1.024,-0.242,3.093
-0.286,0.695,0.178,1.012,-0.215,3.058
-0.272,0.707,0.159,0.990,-0.170,3.010
-0.257,0.718,0.140,0.963,-0.121,2.967
-0.243,0.726,0.124,0.930,-0.072,2.929
-0.230,0.733,0.112,0.895,-0.024,2.895
-0.219,0.738,0.101,0.855,0.020,2.863
-0.208,0.745,0.091,0.811,0.060,2.833
-0.198,0.749,0.082,0.764,0.092,2.803
-0.187,0.754,0.075,0.716,0.118,2.775
-0.179,0.760,0.069,0.666,0.136,2.747
-0.169,0.764,0.064,0.614,0.148,2.718
-0.160,0.768,0.060,0.563,0.152,2.690
-0.155,0.771,0.058,0.512,0.148,2.664
-0.148,0.774,0.055,0.462,0.138,2.638
-0.108,0.775,0.049,0.258,0.047,2.543
-0.097,0.775,0.049,0.214,0.021,2.524
-0.083,0.777,0.047,0.172,-0.001,2.503
-0.070,0.779,0.046,0.133,-0.019,2.480
-0.058,0.781,0.046,0.095,-0.036,2.455
-0.046,0.783,0.045,0.060,-0.053,2.425
-0.035,0.785,0.044,0.027,-0.070,2.392
-0.022,0.788,0.048,-0.005,-0.088,2.354
-0.011,0.792,0.050,-0.035,-0.105,2.313
0.000,0.796,0.052,-0.064,-0.120,2.267
0.011,0.801,0.052,-0.090,-0.130,2.216
0.023,0.807,0.053,-0.115,-0.137,2.161
0.033,0.812,0.056,-0.136,-0.138,2.103
0.040,0.816,0.059,-0.155,-0.135,2.041
0.046,0.821,0.060,-0.170,-0.130,1.975
0.052,0.826,0.061,-0.184,-0.121,1.908

-1.408,0.670,-0.038,-0.632,-1.406,-7.613
-1.526,0.730,-0.047,-0.792,-1.415,-7.423
-1.636,0.788,-0.052,-0.956,-1.416,-7.193
-1.738,0.843,-0.050,-1.121,-1.404,-6.926
-1.830,0.890,-0.049,-1.281,-1.370,-6.625
-1.912,0.932,-0.044,-1.435,-1.315,-6.291
-1.986,0.970,-0.034,-1.575,-1.239,-5.926
-2.051,1.001,-0.020,-1.702,-1.142,-5.532
-2.108,1.028,0.001,-1.805,-1.032,-5.111
-2.156,1.049,0.028,-1.887,-0.911,-4.670
-2.197,1.062,0.059,-1.943,-0.786,-4.208
-2.229,1.066,0.093,-1.972,-0.664,-3.731
-2.251,1.065,0.131,-1.975,-0.547,-3.244
-2.266,1.058,0.170,-1.949,-0.440,-2.752
-2.268,1.046,0.210,-1.893,-0.346,-2.263
-2.259,1.029,0.248,-1.813,-0.262,-1.779
-2.095,0.940,0.373,-1.240,0.144,0.109
-2.042,0.917,0.395,-1.078,0.260,0.484
-1.987,0.891,0.414,-0.914,0.371,0.836
-1.930,0.863,0.432,-0.749,0.474,1.162
-1.871,0.832,0.448,-0.590,0.562,1.465
-1.811,0.801,0.460,-0.435,0.632,1.747
-1.749,0.769,0.471,-0.289,0.680,2.008
-1.685,0.740,0.477,-0.152,0.706,2.250
-1.619,0.711,0.480,-0.024,0.710,2.473
-1.547,0.684,0.479,0.094,0.697,2.681
-1.475,0.660,0.478,0.202,0.667,2.870
-1.400,0.640,0.475,0.300,0.627,3.043
-1.326,0.622,0.470,0.390,0.579,3.200
-1.252,0.605,0.461,0.469,0.529,3.341
-1.180,0.591,0.452,0.542,0.478,3.464
-1.110,0.579,0.440,0.606,0.428,3.573
-1.044,0.570,0.428,0.661,0.380,3.664
-0.982,0.562,0.417,0.711,0.334,3.738
-0.925,0.555,0.405,0.755,0.293,3.795
-0.870,0.551,0.391,0.794,0.254,3.838
-0.821,0.548,0.379,0.828,0.219,3.864
-0.777,0.546,0.369,0.858,0.183,3.875
-0.738,0.548,0.360,0.882,0.148,3.873
-0.698,0.551,0.350,0.904,0.110,3.858
-0.662,0.555,0.340,0.922,0.072,3.830
-0.629,0.560,0.330,0.935,0.033,3.792
-0.506,0.588,0.279,0.959,-0.129,3.531
-0.481,0.595,0.267,0.958,-0.158,3.460
-0.457,0.603,0.254,0.954,-0.180,3.385
-0.438,0.610,0.239,0.947,-0.195,3.311
-0.417,0.618,0.223,0.939,-0.202,3.237
-0.397,0.628,0.209,0.927,-0.201,3.165
-0.381,0.636,0.195,0.913,-0.192,3.097
-0.365,0.643,0.181,0.897,-0.171,3.031
-0.351,0.648,0.168,0.879,-0.143,2.971
-0.339,0.654,0.156,0.861,-0.110,2.916
-0.329,0.661,0.143,0.840,-0.071,2.867
-0.318,0.669,0.132,0.818,-0.031,2.823
-0.307,0.677,0.122,0.794,0.014,2.784
-0.295,0.685,0.114,0.769,0.060,2.751
-0.283,0.694,0.106,0.743,0.103,2.721
-0.271,0.702,0.097,0.715,0.146,2.696
-0.259,0.710,0.091,0.685,0.185,2.671
-0.246,0.718,0.086,0.652,0.222,2.649
-0.234,0.725,0.081,0.618,0.253,2.628
-0.222,0.732,0.077,0.581,0.278,2.605
-0.208,0.739,0.075,0.542,0.296,2.583
-0.194,0.742,0.073,0.501,0.311,2.559
-0.182,0.744,0.071,0.459,0.321,2.535
-0.169,0.747,0.072,0.416,0.328,2.507
-0.157,0.753,0.073,0.372,0.333,2.476
-0.147,0.758,0.074,0.328,0.334,2.442
-0.105,0.788,0.085,0.133,0.315,2.249
-0.100,0.796,0.088,0.092,0.306,2.195
-0.095,0.805,0.091,0.051,0.296,2.139
-0.089,0.811,0.095,0.013,0.285,2.082
-0.085,0.815,0.097,-0.023,0.274,2.024
-0.081,0.819,0.100,-0.056,0.262,1.966
-0.080,0.822,0.105,-0.085,0.251,1.908
-0.078,0.826,0.109,-0.112,0.243,1.851
-0.078,0.831,0.114,-0.135,0.233,1.794
-0.078,0.838,0.118,-0.156,0.225,1.741
-0.077,0.843,0.123,-0.176,0.217,1.689
-0.074,0.848,0.126,-0.193,0.213,1.638

-1.451,0.567,-0.133,0.040,-1.855,-7.971
-1.577,0.629,-0.157,-0.109,-1.856,-7.768
-1.698,0.691,-0.177,-0.267,-1.835,-7.525
-1.813,0.751,-0.194,-0.432,-1.794,-7.242
-1.918,0.812,-0.205,-0.601,-1.738,-6.915
-2.014,0.868,-0.209,-0.770,-1.667,-6.547
-2.101,0.919,-0.209,-0.937,-1.583,-6.140
-2.176,0.965,-0.202,-1.092,-1.488,-5.698
-2.242,1.002,-0.188,-1.236,-1.387,-5.224
-2.296,1.029,-0.167,-1.360,-1.279,-4.725
-2.340,1.048,-0.140,-1.465,-1.169,-4.206
-2.372,1.059,-0.106,-1.548,-1.064,-3.675
-2.392,1.062,-0.068,-1.607,-0.967,-3.138
-2.403,1.059,-0.028,-1.643,-0.881,-2.604
-2.403,1.045,0.018,-1.655,-0.806,-2.081
-2.249,0.953,0.184,-1.451,-0.504,-0.069
-2.189,0.924,0.215,-1.353,-0.407,0.321
-2.125,0.894,0.244,-1.241,-0.295,0.683
-2.059,0.863,0.269,-1.117,-0.177,1.017
-1.991,0.831,0.292,-0.987,-0.055,1.326
-1.925,0.800,0.312,-0.849,0.061,1.612
-1.858,0.771,0.331,-0.710,0.166,1.878
-1.789,0.742,0.349,-0.569,0.258,2.125
-1.718,0.713,0.364,-0.432,0.332,2.355
-1.647,0.689,0.375,-0.298,0.387,2.567
-1.576,0.668,0.382,-0.171,0.427,2.762
-1.504,0.648,0.386,-0.050,0.449,2.936
-1.434,0.631,0.387,0.064,0.460,3.094
-1.364,0.614,0.386,0.172,0.462,3.231
-1.298,0.601,0.381,0.274,0.459,3.351
-1.232,0.589,0.377,0.368,0.458,3.452
-1.171,0.581,0.373,0.458,0.455,3.537
-1.115,0.574,0.366,0.542,0.454,3.607
-1.063,0.570,0.360,0.619,0.455,3.661
-1.016,0.566,0.355,0.692,0.454,3.705
-0.974,0.561,0.348,0.757,0.453,3.736
-0.936,0.557,0.340,0.818,0.446,3.761
-0.900,0.554,0.332,0.873,0.434,3.779
-0.867,0.550,0.327,0.923,0.415,3.792
-0.721,0.551,0.281,1.073,0.244,3.818
-0.686,0.556,0.265,1.091,0.194,3.820
-0.649,0.561,0.250,1.104,0.144,3.817
-0.612,0.568,0.236,1.110,0.097,3.813
-0.579,0.576,0.222,1.109,0.053,3.806
-0.545,0.585,0.206,1.101,0.013,3.796
-0.512,0.595,0.190,1.087,-0.022,3.782
-0.482,0.602,0.177,1.066,-0.053,3.764
-0.452,0.609,0.164,1.041,-0.081,3.742
-0.425,0.614,0.150,1.009,-0.104,3.716
-0.399,0.620,0.136,0.974,-0.126,3.686
-0.376,0.626,0.125,0.934,-0.145,3.655
-0.353,0.634,0.110,0.893,-0.161,3.618
-0.331,0.640,0.098,0.847,-0.178,3.579
-0.311,0.648,0.089,0.801,-0.193,3.537
-0.293,0.656,0.079,0.753,-0.205,3.494
-0.271,0.665,0.068,0.706,-0.213,3.450
-0.251,0.674,0.059,0.657,-0.216,3.404
-0.231,0.683,0.048,0.607,-0.211,3.359
-0.211,0.691,0.039,0.557,-0.199,3.312
-0.190,0.698,0.031,0.507,-0.180,3.264
-0.172,0.706,0.023,0.459,-0.154,3.216
-0.154,0.715,0.017,0.411,-0.123,3.168
-0.137,0.723,0.011,0.363,-0.088,3.118
-0.073,0.756,0.004,0.167,0.089,2.882
-0.061,0.765,0.005,0.121,0.129,2.822
-0.050,0.772,0.008,0.079,0.167,2.762
-0.038,0.778,0.012,0.035,0.203,2.700
-0.027,0.784,0.016,-0.006,0.238,2.636
-0.019,0.790,0.020,-0.049,0.270,2.572
-0.011,0.795,0.026,-0.089,0.299,2.506
-0.004,0.799,0.030,-0.128,0.324,2.440
0.002,0.802,0.035,-0.165,0.343,2.373
0.007,0.804,0.039,-0.199,0.358,2.305
0.011,0.809,0.045,-0.232,0.368,2.237
0.014,0.815,0.051,-0.263,0.372,2.169
0.019,0.821,0.058,-0.291,0.370,2.101
0.023,0.828,0.065,-0.317,0.364,2.034
0.025,0.836,0.070,-0.343,0.357,1.967
0.027,0.845,0.076,-0.365,0.345,1.903
0.030,0.849,0.083,-0.384,0.332,1.839

-1.385,0.666,-0.062,-0.005,-1.012,-7.388
-1.489,0.722,-0.082,-0.134,-0.992,-7.181
-1.588,0.773,-0.100,-0.264,-0.955,-6.942
-1.688,0.824,-0.112,-0.392,-0.902,-6.672
-1.786,0.874,-0.121,-0.514,-0.849,-6.373
-1.876,0.921,-0.123,-0.634,-0.801,-6.043
-1.959,0.964,-0.121,-0.750,-0.759,-5.680
-2.032,1.005,-0.116,-0.861,-0.716,-5.285
-2.092,1.040,-0.112,-0.961,-0.665,-4.860
-2.139,1.072,-0.103,-1.050,-0.603,-4.411
-2.177,1.098,-0.088,-1.125,-0.530,-3.942
-2.207,1.116,-0.065,-1.186,-0.445,-3.459
-2.230,1.122,-0.037,-1.228,-0.359,-2.968
-2.244,1.119,-0.005,-1.256,-0.280,-2.475
-2.247,1.110,0.030,-1.266,-0.215,-1.985
-2.105,1.020,0.190,-1.097,0.018,0.123
-2.045,0.992,0.221,-1.018,0.069,0.518
-1.978,0.960,0.252,-0.929,0.121,0.886
-1.908,0.927,0.282,-0.829,0.173,1.231
-1.838,0.895,0.311,-0.720,0.221,1.550
-1.766,0.862,0.337,-0.608,0.261,1.842
-1.692,0.828,0.361,-0.490,0.292,2.110
-1.615,0.795,0.379,-0.371,0.316,2.354
-1.539,0.765,0.393,-0.253,0.332,2.575
-1.468,0.739,0.406,-0.137,0.331,2.773
-1.399,0.716,0.415,-0.026,0.313,2.950
-1.331,0.696,0.421,0.084,0.280,3.100
-1.288,0.685,0.425,0.153,0.252,3.188
-1.225,0.669,0.421,0.254,0.203,3.302
-1.165,0.656,0.417,0.351,0.150,3.395
-1.108,0.645,0.409,0.442,0.093,3.469
-1.054,0.640,0.400,0.526,0.035,3.527
-1.005,0.637,0.389,0.604,-0.024,3.569
-0.961,0.635,0.376,0.677,-0.084,3.600
-0.919,0.634,0.363,0.742,-0.143,3.622
-0.879,0.634,0.348,0.800,-0.199,3.635
-0.845,0.631,0.332,0.855,-0.252,3.643
-0.812,0.630,0.315,0.904,-0.301,3.646
-0.781,0.630,0.296,0.948,-0.345,3.647
-0.640,0.634,0.203,1.086,-0.482,3.659
-0.605,0.636,0.182,1.097,-0.491,3.667
-0.569,0.640,0.161,1.103,-0.491,3.677
-0.534,0.644,0.140,1.103,-0.479,3.688
-0.509,0.648,0.128,1.099,-0.465,3.694
-0.472,0.653,0.109,1.091,-0.435,3.702
-0.437,0.660,0.090,1.076,-0.395,3.710
-0.402,0.667,0.074,1.057,-0.346,3.711
-0.370,0.671,0.061,1.032,-0.289,3.708
-0.340,0.674,0.046,1.004,-0.228,3.697
-0.309,0.676,0.034,0.973,-0.163,3.681
-0.282,0.677,0.024,0.937,-0.094,3.661
-0.257,0.679,0.015,0.897,-0.023,3.635
-0.231,0.681,0.007,0.855,0.048,3.606
-0.207,0.684,0.001,0.809,0.118,3.573
-0.188,0.687,-0.004,0.760,0.182,3.534
-0.167,0.689,-0.008,0.708,0.242,3.494
-0.147,0.694,-0.011,0.651,0.292,3.450
-0.127,0.698,-0.013,0.594,0.334,3.403
-0.107,0.703,-0.016,0.532,0.370,3.352
-0.086,0.709,-0.018,0.468,0.401,3.296
-0.067,0.716,-0.020,0.402,0.426,3.235
-0.050,0.723,-0.018,0.334,0.445,3.169
-0.034,0.731,-0.017,0.264,0.458,3.098
0.023,0.768,-0.004,-0.068,0.428,2.712
0.034,0.773,0.001,-0.135,0.408,2.620
0.043,0.777,0.007,-0.197,0.386,2.529
0.049,0.782,0.015,-0.255,0.364,2.435
0.052,0.787,0.020,-0.291,0.349,2.372
0.057,0.796,0.023,-0.342,0.328,2.277
0.063,0.807,0.028,-0.387,0.309,2.183
0.068,0.816,0.034,-0.428,0.293,2.090
0.073,0.825,0.036,-0.463,0.283,2.000
0.077,0.833,0.040,-0.493,0.281,1.912
0.080,0.840,0.043,-0.515,0.285,1.828
0.082,0.849,0.049,-0.533,0.299,1.752
0.083,0.858,0.055,-0.545,0.319,1.676
0.084,0.865,0.062,-0.553,0.343,1.606
0.082,0.872,0.070,-0.558,0.366,1.541
0.079,0.879,0.078,-0.559,0.390,1.480
0.076,0.886,0.085,-0.557,0.411,1.424

-1.531,0.533,0.018,-0.453,-0.847,-8.651
-1.693,0.598,0.011,-0.611,-0.872,-8.470
-1.892,0.680,0.005,-0.826,-0.916,-8.155
-2.029,0.735,0.004,-0.989,-0.959,-7.860
-2.155,0.794,0.008,-1.147,-1.009,-7.510
-2.259,0.856,0.014,-1.300,-1.059,-7.106
-2.344,0.916,0.026,-1.442,-1.093,-6.648
-2.422,0.973,0.045,-1.568,-1.103,-6.143
-2.483,1.023,0.074,-1.671,-1.098,-5.597
-2.548,1.074,0.106,-1.751,-1.089,-5.021
-2.587,1.123,0.141,-1.797,-1.083,-4.423
-2.596,1.148,0.177,-1.813,-1.056,-3.808
-2.619,1.153,0.216,-1.793,-0.982,-3.188
-2.647,1.167,0.249,-1.731,-0.907,-2.576
-2.626,1.178,0.288,-1.636,-0.832,-1.965
-2.599,1.173,0.319,-1.512,-0.714,-1.358
-2.564,1.153,0.350,-1.363,-0.564,-0.762
-2.314,0.981,0.487,-0.583,0.030,1.554
-2.232,0.926,0.508,-0.413,0.089,1.996
-2.143,0.871,0.522,-0.253,0.117,2.402
-2.038,0.817,0.530,-0.106,0.126,2.771
-1.928,0.769,0.536,0.027,0.118,3.106
-1.816,0.727,0.537,0.148,0.088,3.412
-1.705,0.693,0.537,0.259,0.045,3.684
-1.593,0.662,0.529,0.362,-0.009,3.925
-1.483,0.631,0.520,0.458,-0.060,4.135
-1.376,0.600,0.509,0.550,-0.106,4.315
-1.276,0.575,0.497,0.641,-0.145,4.469
-1.180,0.556,0.485,0.731,-0.171,4.592
-1.092,0.541,0.472,0.819,-0.188,4.688
-1.010,0.531,0.459,0.905,-0.200,4.758
-0.936,0.522,0.448,0.987,-0.211,4.805
-0.869,0.515,0.434,1.065,-0.219,4.831
-0.811,0.507,0.418,1.142,-0.222,4.834
-0.758,0.503,0.403,1.213,-0.219,4.819
-0.707,0.500,0.385,1.280,-0.210,4.787
-0.659,0.499,0.368,1.342,-0.196,4.741
-0.612,0.501,0.347,1.397,-0.176,4.683
-0.568,0.504,0.325,1.446,-0.150,4.616
-0.526,0.508,0.302,1.488,-0.119,4.542
-0.359,0.551,0.199,1.584,0.078,4.182
-0.325,0.562,0.173,1.586,0.148,4.095
-0.294,0.573,0.148,1.581,0.229,4.008
-0.266,0.585,0.124,1.570,0.318,3.921
-0.244,0.596,0.102,1.551,0.410,3.834
-0.225,0.607,0.083,1.524,0.501,3.750
-0.208,0.616,0.066,1.490,0.591,3.671
-0.192,0.623,0.050,1.447,0.673,3.594
-0.177,0.632,0.038,1.398,0.746,3.522
-0.163,0.641,0.025,1.342,0.811,3.453
-0.150,0.649,0.016,1.279,0.868,3.391
-0.139,0.658,0.007,1.210,0.918,3.330
-0.129,0.668,-0.003,1.137,0.961,3.272
-0.120,0.677,-0.010,1.059,0.996,3.216
-0.115,0.686,-0.014,0.978,1.024,3.161
-0.108,0.694,-0.016,0.894,1.042,3.108
-0.099,0.703,-0.019,0.809,1.053,3.056
-0.094,0.710,-0.020,0.752,1.056,3.023
-0.085,0.716,-0.020,0.666,1.054,2.976
-0.077,0.722,-0.020,0.581,1.047,2.930
-0.070,0.728,-0.017,0.498,1.035,2.885
-0.062,0.737,-0.012,0.416,1.022,2.841
-0.054,0.747,-0.008,0.336,1.005,2.799
-0.046,0.758,-0.004,0.259,0.985,2.755
-0.038,0.769,0.003,0.183,0.961,2.713
-0.015,0.807,0.031,-0.113,0.824,2.496
-0.012,0.813,0.037,-0.161,0.795,2.447
-0.009,0.819,0.044,-0.202,0.769,2.400
-0.005,0.825,0.050,-0.238,0.744,2.353
0.000,0.831,0.054,-0.270,0.723,2.308
0.007,0.836,0.061,-0.296,0.706,2.266
0.015,0.840,0.064,-0.317,0.696,2.226
0.023,0.846,0.067,-0.334,0.695,2.187
0.027,0.849,0.070,-0.343,0.697,2.163
0.032,0.853,0.074,-0.354,0.706,2.124
0.040,0.860,0.078,-0.364,0.717,2.087
0.045,0.865,0.086,-0.371,0.733,2.050
0.049,0.871,0.092,-0.379,0.749,2.010
0.053,0.877,0.098,-0.384,0.763,1.971
0.056,0.882,0.105,-0.388,0.773,1.932

-1.448,0.680,-0.134,-0.430,-0.624,-8.555
-1.602,0.767,-0.154,-0.574,-0.573,-8.245
-1.747,0.853,-0.165,-0.723,-0.497,-7.868
-1.884,0.938,-0.169,-0.874,-0.419,-7.431
-2.013,1.020,-0.161,-1.021,-0.349,-6.942
-2.126,1.096,-0.147,-1.159,-0.292,-6.402
-2.223,1.161,-0.126,-1.281,-0.244,-5.825
-2.322,1.230,-0.081,-1.413,-0.190,-5.005
-2.380,1.264,-0.043,-1.484,-0.153,-4.371
-2.419,1.283,0.006,-1.521,-0.130,-3.726
-2.443,1.290,0.064,-1.526,-0.112,-3.083
-2.459,1.280,0.126,-1.497,-0.101,-2.454
-2.450,1.258,0.187,-1.435,-0.104,-1.842
-2.422,1.228,0.242,-1.339,-0.104,-1.254
-2.376,1.195,0.291,-1.216,-0.100,-0.690
-2.313,1.158,0.337,-1.073,-0.089,-0.158
-1.916,0.967,0.465,-0.360,-0.060,1.744
-1.815,0.921,0.481,-0.204,-0.085,2.086
-1.710,0.877,0.491,-0.057,-0.134,2.390
-1.605,0.835,0.495,0.080,-0.201,2.659
-1.499,0.796,0.490,0.208,-0.280,2.893
-1.393,0.762,0.482,0.328,-0.366,3.091
-1.291,0.733,0.467,0.440,-0.450,3.255
-1.195,0.709,0.449,0.544,-0.527,3.388
-1.107,0.691,0.430,0.642,-0.593,3.492
-1.027,0.677,0.411,0.731,-0.648,3.568
-0.957,0.667,0.392,0.813,-0.697,3.617
-0.896,0.662,0.373,0.888,-0.739,3.645
-0.842,0.657,0.352,0.954,-0.774,3.652
-0.795,0.654,0.329,1.013,-0.805,3.645
-0.752,0.654,0.310,1.066,-0.828,3.624
-0.713,0.658,0.285,1.113,-0.841,3.592
-0.678,0.663,0.263,1.153,-0.843,3.552
-0.645,0.672,0.237,1.186,-0.831,3.509
-0.617,0.681,0.213,1.213,-0.802,3.463
-0.593,0.691,0.184,1.237,-0.753,3.418
-0.571,0.700,0.156,1.255,-0.686,3.376
-0.551,0.708,0.123,1.269,-0.598,3.334
-0.474,0.752,0.024,1.247,-0.074,3.234
-0.459,0.756,0.009,1.224,0.064,3.233
-0.444,0.762,-0.005,1.192,0.200,3.235
-0.427,0.766,-0.016,1.154,0.334,3.241
-0.410,0.767,-0.024,1.109,0.464,3.250
-0.393,0.764,-0.030,1.058,0.587,3.263
-0.375,0.760,-0.033,1.000,0.697,3.278
-0.355,0.758,-0.031,0.938,0.791,3.295
-0.335,0.754,-0.032,0.869,0.869,3.313
-0.313,0.751,-0.029,0.797,0.932,3.331
-0.289,0.751,-0.024,0.720,0.977,3.348
-0.268,0.748,-0.018,0.642,1.007,3.364
-0.245,0.747,-0.011,0.560,1.022,3.376
-0.220,0.745,-0.005,0.478,1.024,3.384
-0.197,0.743,0.003,0.396,1.015,3.387
-0.175,0.741,0.012,0.314,0.998,3.387
-0.153,0.739,0.020,0.235,0.973,3.382
-0.135,0.738,0.030,0.158,0.932,3.374
-0.116,0.737,0.039,0.083,0.879,3.361
-0.099,0.737,0.046,0.012,0.814,3.344
-0.078,0.739,0.055,-0.055,0.739,3.323
-0.064,0.741,0.060,-0.097,0.684,3.305
-0.041,0.742,0.067,-0.156,0.602,3.275
-0.019,0.743,0.074,-0.211,0.521,3.238
0.071,0.761,0.090,-0.396,0.210,2.981
0.086,0.765,0.092,-0.421,0.167,2.909
0.101,0.770,0.092,-0.444,0.132,2.832
0.113,0.775,0.094,-0.463,0.106,2.753
0.126,0.784,0.093,-0.478,0.088,2.671
0.138,0.796,0.094,-0.491,0.077,2.587
0.152,0.811,0.097,-0.501,0.073,2.501
0.164,0.823,0.096,-0.510,0.082,2.416
0.177,0.834,0.097,-0.515,0.102,2.332
0.189,0.841,0.098,-0.519,0.136,2.249
0.199,0.852,0.100,-0.521,0.181,2.168
0.205,0.858,0.102,-0.521,0.215,2.115
0.212,0.869,0.104,-0.523,0.270,2.037
0.217,0.877,0.107,-0.524,0.329,1.961
0.222,0.885,0.114,-0.523,0.390,1.888
0.226,0.893,0.120,-0.521,0.451,1.818
0.226,0.898,0.127,-0.518,0.511,1.744
0.225,0.904,0.133,-0.516,0.564,1.679

0.929,0.823,0.234,-0.027,-0.281,-1.207
0.980,0.792,0.247,-0.038,-0.341,-1.391
1.031,0.765,0.249,-0.048,-0.395,-1.602
1.080,0.729,0.251,-0.042,-0.410,-1.839
1.114,0.680,0.259,-0.023,-0.390,-2.101
1.135,0.623,0.271,0.005,-0.350,-2.381
1.141,0.565,0.288,0.043,-0.306,-2.680
1.139,0.516,0.312,0.081,-0.275,-2.999
1.118,0.468,0.342,0.117,-0.263,-3.340
1.088,0.427,0.382,0.133,-0.302,-3.707
1.064,0.387,0.408,0.125,-0.407,-4.089
1.050,0.364,0.416,0.109,-0.534,-4.474
1.040,0.345,0.409,0.103,-0.645,-4.851
1.022,0.320,0.397,0.121,-0.709,-5.209
0.986,0.292,0.389,0.163,-0.722,-5.545
0.934,0.265,0.385,0.221,-0.696,-5.860
0.874,0.239,0.381,0.293,-0.650,-6.151
0.806,0.211,0.375,0.374,-0.599,-6.419
0.730,0.184,0.365,0.464,-0.551,-6.663
0.642,0.157,0.349,0.562,-0.511,-6.883
0.542,0.133,0.328,0.663,-0.477,-7.085
0.435,0.116,0.305,0.763,-0.451,-7.267
-0.126,0.169,0.204,1.065,-0.404,-7.858
-0.283,0.211,0.184,1.077,-0.418,-7.942
-0.444,0.262,0.158,1.064,-0.453,-8.000
-0.607,0.318,0.133,1.024,-0.514,-8.025
-0.773,0.377,0.105,0.959,-0.608,-8.017
-0.935,0.442,0.075,0.873,-0.715,-7.978
-1.093,0.509,0.043,0.768,-0.813,-7.908
-1.243,0.578,0.007,0.650,-0.895,-7.804
-1.387,0.647,-0.027,0.524,-0.954,-7.659
-1.521,0.714,-0.060,0.387,-0.983,-7.470
-1.649,0.777,-0.086,0.247,-0.992,-7.234
-1.765,0.837,-0.110,0.104,-0.982,-6.947
-1.868,0.897,-0.131,-0.039,-0.958,-6.610
-1.959,0.956,-0.147,-0.178,-0.915,-6.226
-2.041,1.011,-0.159,-0.311,-0.855,-5.799
-2.109,1.059,-0.164,-0.433,-0.780,-5.335
-2.169,1.097,-0.157,-0.542,-0.693,-4.839
-2.324,1.172,-0.065,-0.818,-0.363,-2.511
-2.327,1.164,-0.030,-0.835,-0.324,-1.976
-2.314,1.150,0.005,-0.834,-0.286,-1.458
-2.287,1.128,0.039,-0.816,-0.246,-0.959
-2.244,1.101,0.073,-0.782,-0.203,-0.483
-2.191,1.072,0.107,-0.734,-0.156,-0.033
-2.131,1.041,0.138,-0.677,-0.110,0.391
-2.062,1.009,0.166,-0.610,-0.062,0.784
-1.987,0.974,0.192,-0.535,-0.018,1.153
-1.906,0.938,0.216,-0.457,0.018,1.493
-1.822,0.902,0.239,-0.375,0.047,1.809
-1.733,0.868,0.259,-0.293,0.065,2.099
-1.641,0.835,0.276,-0.211,0.071,2.365
-1.551,0.804,0.290,-0.130,0.067,2.605
-1.460,0.774,0.302,-0.053,0.051,2.819
-1.373,0.747,0.311,0.020,0.024,3.006
-1.291,0.725,0.315,0.092,-0.013,3.166
-1.209,0.703,0.315,0.158,-0.056,3.300
-1.130,0.686,0.314,0.220,-0.099,3.409
-1.057,0.671,0.305,0.281,-0.140,3.494
-0.775,0.638,0.258,0.514,-0.222,3.631
-0.730,0.641,0.248,0.551,-0.231,3.619
-0.692,0.644,0.238,0.584,-0.243,3.597
-0.657,0.646,0.225,0.612,-0.259,3.566
-0.624,0.648,0.213,0.637,-0.274,3.528
-0.593,0.650,0.200,0.660,-0.285,3.485
-0.573,0.651,0.189,0.675,-0.292,3.456
-0.545,0.654,0.170,0.694,-0.293,3.409
-0.520,0.660,0.153,0.711,-0.283,3.361
-0.494,0.668,0.134,0.726,-0.262,3.315
-0.470,0.675,0.114,0.738,-0.228,3.269
-0.443,0.682,0.092,0.747,-0.181,3.229
-0.418,0.689,0.072,0.751,-0.119,3.193
-0.395,0.696,0.055,0.752,-0.047,3.161
-0.375,0.702,0.041,0.747,0.034,3.133
-0.357,0.710,0.028,0.738,0.118,3.110
-0.341,0.719,0.015,0.722,0.204,3.091
-0.322,0.726,0.003,0.698,0.292,3.077
-0.302,0.734,-0.004,0.668,0.380,3.067
-0.284,0.741,-0.009,0.630,0.468,3.061
-0.267,0.745,-0.010,0.585,0.552,3.056

0.880,0.807,0.268,0.128,-0.612,-1.192
0.931,0.781,0.274,0.116,-0.743,-1.353
0.966,0.737,0.279,0.103,-0.865,-1.532
0.993,0.687,0.279,0.088,-0.977,-1.737
1.019,0.631,0.280,0.072,-1.077,-1.968
1.043,0.578,0.281,0.054,-1.159,-2.226
1.060,0.520,0.280,0.037,-1.220,-2.509
1.067,0.455,0.277,0.020,-1.258,-2.819
1.065,0.393,0.271,0.004,-1.273,-3.153
1.057,0.338,0.264,-0.011,-1.267,-3.510
1.038,0.281,0.253,-0.020,-1.241,-3.887
1.010,0.234,0.241,-0.031,-1.192,-4.275
0.989,0.210,0.226,-0.037,-1.127,-4.671
0.963,0.189,0.210,-0.036,-1.055,-5.066
0.925,0.161,0.191,-0.026,-0.974,-5.457
0.876,0.128,0.169,-0.006,-0.881,-5.838
0.821,0.095,0.145,0.023,-0.774,-6.202
0.762,0.066,0.121,0.061,-0.654,-6.541
0.696,0.044,0.099,0.104,-0.530,-6.851
0.626,0.034,0.080,0.147,-0.403,-7.131
0.542,0.034,0.068,0.184,-0.284,-7.380
0.443,0.035,0.057,0.211,-0.175,-7.608
-0.121,0.067,0.035,0.175,0.180,-8.374
-0.272,0.108,0.037,0.132,0.190,-8.501
-0.428,0.170,0.043,0.074,0.164,-8.600
-0.585,0.238,0.054,-0.001,0.103,-8.664
-0.741,0.299,0.057,-0.090,0.024,-8.692
-0.890,0.366,0.056,-0.189,-0.055,-8.681
-1.032,0.437,0.054,-0.296,-0.125,-8.629
-1.172,0.506,0.052,-0.405,-0.171,-8.532
-1.309,0.575,0.052,-0.515,-0.198,-8.385
-1.447,0.646,0.053,-0.624,-0.222,-8.187
-1.578,0.714,0.056,-0.729,-0.253,-7.936
-1.704,0.774,0.061,-0.829,-0.284,-7.640
-1.813,0.831,0.062,-0.916,-0.309,-7.304
-1.916,0.883,0.065,-0.990,-0.314,-6.936
-2.009,0.933,0.072,-1.046,-0.316,-6.538
-2.096,0.974,0.084,-1.088,-0.315,-6.111
-2.172,1.015,0.101,-1.117,-0.322,-5.656
-2.226,1.055,0.118,-1.134,-0.333,-5.173
-2.338,1.194,0.199,-1.089,-0.231,-2.923
-2.344,1.198,0.223,-1.048,-0.162,-2.399
-2.343,1.190,0.250,-0.994,-0.089,-1.884
-2.331,1.170,0.276,-0.929,-0.018,-1.379
-2.308,1.145,0.304,-0.851,0.047,-0.890
-2.273,1.116,0.331,-0.763,0.105,-0.418
-2.227,1.085,0.357,-0.665,0.153,0.031
-2.171,1.051,0.377,-0.560,0.190,0.455
-2.106,1.017,0.398,-0.449,0.220,0.854
-2.034,0.983,0.412,-0.336,0.244,1.223
-1.961,0.946,0.426,-0.221,0.261,1.565
-1.882,0.908,0.439,-0.107,0.270,1.884
-1.803,0.869,0.451,0.005,0.270,2.177
-1.724,0.829,0.455,0.116,0.260,2.445
-1.632,0.789,0.449,0.225,0.263,2.684
-1.536,0.764,0.446,0.330,0.284,2.904
-1.449,0.744,0.443,0.432,0.295,3.110
-1.373,0.715,0.441,0.530,0.284,3.297
-1.302,0.678,0.440,0.627,0.250,3.462
-1.229,0.640,0.438,0.722,0.204,3.603
-1.150,0.608,0.432,0.811,0.164,3.724
-1.068,0.587,0.426,0.895,0.135,3.825
-0.994,0.577,0.413,0.971,0.105,3.908
-0.730,0.563,0.351,1.206,-0.019,4.041
-0.681,0.561,0.337,1.235,-0.049,4.027
-0.635,0.562,0.320,1.255,-0.079,4.001
-0.592,0.565,0.303,1.267,-0.109,3.965
-0.553,0.569,0.283,1.273,-0.135,3.918
-0.515,0.577,0.262,1.271,-0.160,3.864
-0.480,0.585,0.240,1.264,-0.181,3.802
-0.447,0.592,0.219,1.252,-0.198,3.735
-0.416,0.601,0.197,1.235,-0.210,3.665
-0.386,0.612,0.174,1.211,-0.216,3.594
-0.360,0.622,0.151,1.182,-0.216,3.522
-0.336,0.631,0.129,1.147,-0.210,3.449
-0.314,0.641,0.106,1.106,-0.198,3.378
-0.293,0.652,0.084,1.059,-0.179,3.309
-0.274,0.663,0.065,1.006,-0.152,3.244
-0.255,0.673,0.049,0.947,-0.119,3.181
-0.238,0.683,0.033,0.884,-0.083,3.122

0.900,0.726,0.310,0.527,0.204,-1.414
0.942,0.690,0.308,0.530,0.134,-1.662
0.975,0.647,0.305,0.528,0.052,-1.938
0.998,0.595,0.295,0.520,-0.034,-2.242
1.014,0.540,0.285,0.509,-0.122,-2.571
1.022,0.489,0.272,0.496,-0.202,-2.920
1.029,0.449,0.257,0.483,-0.259,-3.286
1.026,0.415,0.245,0.469,-0.279,-3.664
1.013,0.385,0.235,0.455,-0.275,-4.046
0.987,0.358,0.230,0.438,-0.254,-4.427
0.952,0.338,0.228,0.417,-0.229,-4.799
0.908,0.322,0.223,0.392,-0.205,-5.157
0.856,0.309,0.217,0.366,-0.181,-5.497
0.800,0.294,0.209,0.345,-0.149,-5.814
0.736,0.276,0.200,0.331,-0.100,-6.105
0.665,0.259,0.193,0.329,-0.034,-6.372
0.584,0.245,0.188,0.337,0.044,-6.613
0.492,0.235,0.183,0.358,0.126,-6.828
0.424,0.231,0.182,0.376,0.181,-6.959
0.317,0.228,0.177,0.411,0.253,-7.134
0.203,0.227,0.175,0.451,0.308,-7.280
0.086,0.230,0.169,0.495,0.342,-7.400
-0.035,0.240,0.160,0.535,0.354,-7.490
-0.158,0.261,0.150,0.571,0.346,-7.550
-0.278,0.295,0.139,0.596,0.321,-7.577
-0.811,0.510,0.095,0.491,-0.024,-7.320
-0.922,0.550,0.088,0.425,-0.090,-7.209
-1.031,0.592,0.085,0.345,-0.145,-7.079
-1.139,0.636,0.081,0.253,-0.189,-6.930
-1.243,0.686,0.078,0.155,-0.228,-6.761
-1.345,0.739,0.078,0.054,-0.269,-6.573
-1.443,0.789,0.079,-0.046,-0.316,-6.365
-1.535,0.833,0.077,-0.144,-0.370,-6.135
-1.624,0.874,0.078,-0.236,-0.429,-5.883
-1.701,0.913,0.080,-0.322,-0.492,-5.607
-1.774,0.952,0.080,-0.399,-0.549,-5.306
-1.830,0.988,0.083,-0.467,-0.599,-4.975
-1.885,1.024,0.087,-0.527,-0.630,-4.614
-1.917,1.059,0.094,-0.574,-0.651,-4.226
-1.951,1.086,0.104,-0.611,-0.648,-3.813
-1.981,1.112,0.117,-0.636,-0.647,-3.386
-1.998,1.133,0.129,-0.652,-0.643,-2.946
-2.003,1.140,0.142,-0.659,-0.628,-2.498
-1.964,1.117,0.222,-0.582,-0.604,-0.645
-1.927,1.099,0.238,-0.545,-0.593,-0.260
-1.887,1.075,0.252,-0.499,-0.575,0.105
-1.842,1.049,0.267,-0.450,-0.556,0.449
-1.791,1.022,0.282,-0.395,-0.535,0.770
-1.738,0.997,0.296,-0.337,-0.518,1.071
-1.684,0.972,0.307,-0.276,-0.503,1.349
-1.624,0.948,0.317,-0.212,-0.492,1.608
-1.563,0.925,0.324,-0.144,-0.481,1.849
-1.500,0.902,0.329,-0.073,-0.470,2.070
-1.436,0.879,0.334,0.000,-0.460,2.274
-1.372,0.858,0.337,0.077,-0.447,2.459
-1.313,0.839,0.338,0.155,-0.436,2.627
-1.255,0.821,0.339,0.235,-0.428,2.777
-1.197,0.806,0.340,0.314,-0.416,2.913
-1.142,0.791,0.339,0.390,-0.401,3.035
-1.089,0.779,0.334,0.462,-0.383,3.145
-1.036,0.765,0.330,0.532,-0.363,3.242
-0.989,0.753,0.325,0.598,-0.339,3.329
-0.942,0.740,0.320,0.663,-0.314,3.404
-0.753,0.689,0.283,0.910,-0.185,3.639
-0.712,0.678,0.275,0.960,-0.153,3.676
-0.670,0.670,0.265,1.007,-0.122,3.709
-0.630,0.663,0.253,1.047,-0.094,3.734
-0.591,0.657,0.242,1.086,-0.067,3.755
-0.555,0.652,0.228,1.117,-0.042,3.766
-0.520,0.649,0.214,1.145,-0.017,3.771
-0.486,0.646,0.202,1.166,0.007,3.767
-0.455,0.642,0.189,1.181,0.030,3.758
-0.423,0.640,0.174,1.191,0.051,3.744
-0.392,0.638,0.160,1.195,0.070,3.724
-0.361,0.638,0.144,1.192,0.087,3.701
-0.330,0.639,0.131,1.184,0.103,3.674
-0.300,0.641,0.118,1.170,0.122,3.642
-0.270,0.645,0.106,1.149,0.143,3.607
-0.243,0.650,0.095,1.124,0.167,3.566
-0.218,0.657,0.082,1.091,0.195,3.522

0.949,0.636,0.312,0.212,-0.139,-2.472
0.965,0.595,0.320,0.190,-0.204,-2.755
0.976,0.554,0.329,0.170,-0.275,-3.054
0.983,0.515,0.337,0.154,-0.346,-3.370
0.984,0.478,0.342,0.145,-0.414,-3.699
0.982,0.439,0.346,0.139,-0.477,-4.039
0.979,0.399,0.345,0.142,-0.525,-4.381
0.972,0.363,0.343,0.152,-0.554,-4.724
0.957,0.328,0.339,0.173,-0.561,-5.057
0.932,0.287,0.332,0.206,-0.534,-5.381
0.900,0.242,0.327,0.252,-0.479,-5.695
0.857,0.201,0.321,0.312,-0.400,-5.996
0.801,0.168,0.314,0.383,-0.308,-6.285
0.735,0.138,0.309,0.465,-0.210,-6.564
0.661,0.113,0.302,0.556,-0.113,-6.829
0.584,0.091,0.293,0.652,-0.022,-7.079
0.499,0.074,0.283,0.755,0.057,-7.310
0.406,0.056,0.269,0.857,0.115,-7.523
0.306,0.038,0.252,0.957,0.147,-7.714
0.201,0.024,0.231,1.048,0.153,-7.883
0.093,0.023,0.209,1.127,0.140,-8.029
0.019,0.028,0.194,1.170,0.121,-8.113
-0.092,0.044,0.171,1.219,0.077,-8.221
-0.205,0.071,0.143,1.245,0.016,-8.307
-0.800,0.268,0.028,1.044,-0.534,-8.407
-0.946,0.317,0.001,0.932,-0.685,-8.377
-1.097,0.371,-0.026,0.800,-0.827,-8.329
-1.244,0.435,-0.050,0.651,-0.955,-8.257
-1.387,0.507,-0.072,0.485,-1.061,-8.156
-1.533,0.580,-0.092,0.306,-1.146,-8.017
-1.675,0.653,-0.113,0.119,-1.208,-7.834
-1.810,0.724,-0.131,-0.072,-1.245,-7.603
-1.945,0.782,-0.150,-0.263,-1.252,-7.325
-2.071,0.837,-0.163,-0.445,-1.247,-6.999
-2.186,0.891,-0.167,-0.615,-1.228,-6.622
-2.300,0.965,-0.172,-0.768,-1.203,-6.195
-2.374,1.045,-0.176,-0.905,-1.167,-5.714
-2.415,1.090,-0.162,-1.024,-1.086,-5.180
-2.512,1.105,-0.136,-1.125,-0.955,-4.605
-2.596,1.151,-0.104,-1.194,-0.898,-4.017
-2.634,1.203,0.039,-1.228,-0.632,-1.336
-2.607,1.170,0.080,-1.169,-0.513,-0.741
-2.569,1.128,0.125,-1.084,-0.388,-0.171
-2.521,1.082,0.168,-0.984,-0.271,0.368
-2.459,1.031,0.209,-0.869,-0.165,0.875
-2.386,0.979,0.249,-0.744,-0.070,1.347
-2.304,0.925,0.284,-0.613,0.015,1.784
-2.214,0.871,0.315,-0.475,0.085,2.185
-2.121,0.819,0.345,-0.336,0.139,2.552
-2.025,0.767,0.369,-0.198,0.172,2.889
-1.928,0.717,0.389,-0.061,0.182,3.197
-1.829,0.671,0.403,0.073,0.172,3.477
-1.727,0.631,0.410,0.206,0.151,3.728
-1.626,0.596,0.412,0.334,0.128,3.954
-1.528,0.569,0.410,0.458,0.100,4.153
-1.435,0.547,0.406,0.573,0.067,4.327
-1.345,0.526,0.397,0.682,0.034,4.474
-1.260,0.504,0.388,0.785,0.005,4.596
-1.179,0.485,0.375,0.879,-0.018,4.696
-1.105,0.471,0.362,0.965,-0.038,4.773
-1.033,0.461,0.344,1.043,-0.056,4.831
-0.968,0.454,0.329,1.111,-0.076,4.869
-0.725,0.447,0.251,1.318,-0.168,4.853
-0.676,0.452,0.230,1.347,-0.189,4.817
-0.629,0.460,0.206,1.369,-0.209,4.773
-0.586,0.468,0.182,1.385,-0.222,4.721
-0.544,0.476,0.156,1.393,-0.230,4.662
-0.505,0.488,0.131,1.395,-0.231,4.600
-0.470,0.500,0.105,1.390,-0.222,4.533
-0.438,0.511,0.079,1.377,-0.204,4.464
-0.406,0.526,0.054,1.357,-0.181,4.395
-0.376,0.542,0.030,1.328,-0.148,4.324
-0.348,0.561,0.009,1.291,-0.109,4.254
-0.322,0.579,-0.011,1.245,-0.062,4.183
-0.294,0.594,-0.028,1.194,-0.005,4.115
-0.269,0.605,-0.043,1.134,0.060,4.047
-0.243,0.617,-0.055,1.068,0.135,3.982
-0.220,0.629,-0.069,0.996,0.216,3.921
-0.197,0.639,-0.080,0.917,0.297,3.861
-0.175,0.649,-0.087,0.833,0.378,3.804

-1.298,0.661,0.053,0.359,-1.512,-7.882
-1.412,0.714,0.030,0.223,-1.620,-7.729
-1.532,0.768,0.008,0.081,-1.692,-7.532
-1.634,0.829,-0.016,-0.066,-1.731,-7.288
-1.723,0.894,-0.038,-0.213,-1.728,-6.997
-1.866,0.978,-0.062,-0.405,-1.654,-6.544
-1.954,1.057,-0.082,-0.538,-1.579,-6.155
-2.011,1.128,-0.099,-0.662,-1.469,-5.718
-2.046,1.140,-0.089,-0.773,-1.280,-5.232
-2.182,1.148,-0.078,-0.858,-1.062,-4.729
-2.267,1.191,-0.055,-0.913,-0.947,-4.208
-2.318,1.238,-0.040,-0.949,-0.851,-3.657
-2.354,1.274,-0.025,-0.968,-0.744,-3.085
-2.373,1.297,-0.006,-0.967,-0.625,-2.499
-2.377,1.303,0.016,-0.944,-0.479,-1.907
-2.371,1.297,0.045,-0.898,-0.310,-1.322
-2.242,1.150,0.229,-0.504,0.409,0.985
-2.182,1.095,0.271,-0.386,0.521,1.442
-2.113,1.037,0.309,-0.264,0.613,1.868
-2.035,0.984,0.346,-0.138,0.681,2.261
-1.950,0.940,0.375,-0.013,0.724,2.623
-1.862,0.899,0.401,0.112,0.744,2.952
-1.774,0.859,0.420,0.232,0.742,3.250
-1.684,0.821,0.434,0.348,0.719,3.517
-1.593,0.782,0.446,0.460,0.681,3.755
-1.504,0.745,0.450,0.568,0.629,3.964
-1.417,0.709,0.449,0.672,0.566,4.147
-1.333,0.673,0.444,0.772,0.495,4.305
-1.250,0.639,0.433,0.867,0.422,4.441
-1.167,0.609,0.416,0.959,0.352,4.555
-1.084,0.584,0.395,1.046,0.286,4.650
-1.004,0.562,0.375,1.127,0.230,4.726
-0.926,0.545,0.351,1.203,0.181,4.786
-0.849,0.531,0.328,1.271,0.139,4.832
-0.778,0.521,0.300,1.330,0.102,4.862
-0.710,0.512,0.273,1.382,0.071,4.881
-0.645,0.503,0.244,1.427,0.049,4.886
-0.582,0.497,0.215,1.465,0.030,4.882
-0.525,0.493,0.186,1.495,0.011,4.867
-0.471,0.495,0.159,1.515,-0.012,4.843
-0.420,0.496,0.130,1.529,-0.031,4.811
-0.369,0.501,0.102,1.532,-0.049,4.770
-0.170,0.542,-0.021,1.434,-0.032,4.484
-0.132,0.556,-0.046,1.382,-0.010,4.388
-0.097,0.571,-0.067,1.323,0.018,4.280
-0.068,0.583,-0.088,1.255,0.051,4.163
-0.042,0.596,-0.105,1.181,0.088,4.036
-0.018,0.609,-0.120,1.101,0.129,3.900
0.002,0.620,-0.135,1.017,0.175,3.762
0.021,0.634,-0.142,0.929,0.223,3.620
0.037,0.646,-0.147,0.838,0.274,3.480
0.050,0.660,-0.151,0.744,0.326,3.341
0.062,0.675,-0.157,0.649,0.378,3.203
0.072,0.693,-0.159,0.554,0.431,3.069
0.079,0.711,-0.156,0.460,0.483,2.942
0.084,0.727,-0.157,0.367,0.535,2.819
0.089,0.740,-0.155,0.277,0.586,2.703
0.095,0.749,-0.150,0.189,0.637,2.597
0.099,0.759,-0.145,0.106,0.689,2.498
0.101,0.765,-0.139,0.054,0.720,2.436
0.104,0.775,-0.131,-0.020,0.767,2.350
0.105,0.786,-0.123,-0.087,0.811,2.270
0.106,0.798,-0.111,-0.150,0.846,2.197
0.107,0.809,-0.099,-0.206,0.874,2.130
0.108,0.819,-0.085,-0.260,0.892,2.068
0.108,0.826,-0.070,-0.310,0.902,2.014
0.108,0.834,-0.057,-0.355,0.904,1.963
0.109,0.860,0.010,-0.527,0.806,1.784
0.113,0.865,0.025,-0.557,0.762,1.750
0.115,0.869,0.037,-0.582,0.714,1.717
0.118,0.873,0.046,-0.604,0.663,1.679
0.121,0.878,0.054,-0.625,0.610,1.643
0.123,0.881,0.059,-0.637,0.574,1.622
0.127,0.888,0.068,-0.653,0.518,1.587
0.131,0.895,0.076,-0.668,0.462,1.550
0.134,0.900,0.084,-0.682,0.405,1.511
0.136,0.904,0.089,-0.695,0.348,1.473
0.139,0.907,0.093,-0.707,0.294,1.434
0.142,0.910,0.098,-0.717,0.244,1.393
0.144,0.914,0.099,-0.727,0.199,1.351

-1.281,0.691,-0.051,-0.409,-0.778,-6.666
-1.387,0.748,-0.055,-0.471,-0.816,-6.470
-1.487,0.810,-0.064,-0.530,-0.833,-6.242
-1.580,0.872,-0.074,-0.582,-0.831,-5.978
-1.670,0.929,-0.080,-0.629,-0.811,-5.679
-1.755,0.980,-0.081,-0.670,-0.781,-5.345
-1.834,1.026,-0.077,-0.707,-0.742,-4.976
-1.904,1.065,-0.071,-0.733,-0.699,-4.579
-1.964,1.097,-0.060,-0.752,-0.659,-4.155
-2.017,1.124,-0.046,-0.762,-0.622,-3.711
-2.060,1.146,-0.029,-0.763,-0.591,-3.251
-2.091,1.162,-0.007,-0.757,-0.566,-2.784
-2.111,1.173,0.016,-0.742,-0.550,-2.317
-2.119,1.178,0.041,-0.722,-0.544,-1.852
-2.115,1.179,0.067,-0.696,-0.546,-1.396
-1.963,1.110,0.176,-0.487,-0.551,0.486
-1.912,1.083,0.194,-0.421,-0.534,0.824
-1.855,1.053,0.211,-0.346,-0.510,1.142
-1.795,1.023,0.225,-0.264,-0.481,1.438
-1.733,0.994,0.240,-0.178,-0.452,1.714
-1.671,0.966,0.252,-0.087,-0.425,1.972
-1.608,0.939,0.263,0.004,-0.402,2.211
-1.544,0.910,0.272,0.098,-0.387,2.434
-1.477,0.880,0.276,0.190,-0.381,2.639
-1.411,0.853,0.279,0.282,-0.382,2.829
-1.344,0.826,0.277,0.369,-0.387,3.003
-1.275,0.800,0.276,0.452,-0.397,3.161
-1.206,0.777,0.272,0.529,-0.408,3.303
-1.138,0.754,0.264,0.599,-0.419,3.430
-1.069,0.736,0.252,0.663,-0.422,3.541
-0.999,0.723,0.239,0.718,-0.417,3.638
-0.933,0.711,0.226,0.765,-0.408,3.722
-0.870,0.702,0.211,0.803,-0.395,3.791
-0.830,0.698,0.203,0.825,-0.385,3.829
-0.774,0.693,0.191,0.850,-0.370,3.873
-0.722,0.687,0.177,0.869,-0.353,3.903
-0.675,0.685,0.165,0.881,-0.338,3.918
-0.500,0.673,0.105,0.843,-0.284,3.866
-0.467,0.672,0.090,0.818,-0.271,3.837
-0.439,0.676,0.075,0.790,-0.259,3.801
-0.411,0.681,0.062,0.756,-0.245,3.763
-0.381,0.688,0.051,0.718,-0.230,3.722
-0.354,0.695,0.038,0.677,-0.213,3.679
-0.329,0.701,0.023,0.634,-0.190,3.635
-0.306,0.707,0.011,0.589,-0.165,3.591
-0.285,0.711,-0.003,0.542,-0.137,3.545
-0.265,0.715,-0.015,0.494,-0.109,3.500
-0.247,0.720,-0.021,0.443,-0.076,3.456
-0.230,0.725,-0.028,0.388,-0.042,3.414
-0.212,0.732,-0.029,0.332,-0.003,3.374
-0.195,0.739,-0.032,0.274,0.038,3.333
-0.177,0.749,-0.035,0.213,0.082,3.295
-0.161,0.761,-0.039,0.150,0.125,3.255
-0.144,0.770,-0.041,0.088,0.164,3.217
-0.125,0.772,-0.042,0.028,0.200,3.179
-0.107,0.771,-0.040,-0.033,0.233,3.142
-0.089,0.770,-0.036,-0.089,0.263,3.105
-0.073,0.768,-0.033,-0.146,0.289,3.070
0.009,0.777,-0.005,-0.344,0.364,2.904
0.024,0.783,0.004,-0.380,0.368,2.857
0.038,0.790,0.013,-0.413,0.365,2.805
0.052,0.795,0.022,-0.442,0.353,2.749
0.064,0.798,0.032,-0.467,0.335,2.688
0.075,0.799,0.041,-0.490,0.312,2.623
0.085,0.801,0.051,-0.509,0.286,2.555
0.095,0.803,0.059,-0.524,0.258,2.484
0.105,0.805,0.066,-0.536,0.226,2.410
0.113,0.808,0.073,-0.546,0.192,2.335
0.121,0.811,0.078,-0.552,0.159,2.257
0.127,0.814,0.083,-0.557,0.127,2.178
0.133,0.819,0.086,-0.558,0.099,2.098
0.138,0.826,0.090,-0.558,0.077,2.015
0.142,0.833,0.092,-0.554,0.060,1.932
0.145,0.841,0.092,-0.550,0.050,1.875
0.147,0.855,0.094,-0.543,0.036,1.789
0.151,0.868,0.093,-0.531,0.024,1.706
0.156,0.878,0.091,-0.517,0.019,1.626
0.159,0.886,0.092,-0.502,0.023,1.550
0.160,0.891,0.096,-0.483,0.038,1.476
0.160,0.896,0.099,-0.464,0.062,1.407

-1.349,0.566,0.262,-1.623,-0.795,-7.913
-1.450,0.610,0.276,-1.672,-0.889,-7.740
-1.546,0.655,0.289,-1.711,-0.974,-7.524
-1.635,0.700,0.301,-1.741,-1.055,-7.268
-1.720,0.741,0.315,-1.759,-1.126,-6.975
-1.797,0.778,0.327,-1.764,-1.184,-6.648
-1.874,0.814,0.338,-1.756,-1.228,-6.291
-1.943,0.848,0.349,-1.733,-1.257,-5.906
-2.012,0.880,0.363,-1.694,-1.269,-5.496
-2.073,0.909,0.379,-1.644,-1.273,-5.065
-2.128,0.937,0.394,-1.581,-1.272,-4.616
-2.171,0.960,0.408,-1.508,-1.264,-4.152
-2.206,0.981,0.422,-1.426,-1.246,-3.677
-2.233,0.997,0.438,-1.335,-1.223,-3.198
-2.246,1.008,0.452,-1.233,-1.195,-2.719
-2.247,1.016,0.462,-1.125,-1.159,-2.246
-2.237,1.020,0.471,-1.011,-1.109,-1.782
-2.099,0.979,0.502,-0.454,-0.767,0.030
-2.056,0.956,0.504,-0.315,-0.665,0.388
-2.008,0.928,0.508,-0.176,-0.561,0.723
-1.958,0.900,0.507,-0.036,-0.457,1.034
-1.904,0.875,0.506,0.099,-0.355,1.323
-1.847,0.853,0.504,0.229,-0.256,1.591
-1.788,0.833,0.499,0.351,-0.164,1.840
-1.728,0.813,0.494,0.467,-0.073,2.071
-1.667,0.793,0.485,0.574,0.013,2.284
-1.608,0.775,0.475,0.672,0.095,2.482
-1.547,0.756,0.468,0.760,0.172,2.666
-1.488,0.738,0.458,0.840,0.244,2.835
-1.430,0.720,0.450,0.910,0.310,2.990
-1.372,0.704,0.438,0.970,0.369,3.133
-1.319,0.688,0.429,1.020,0.422,3.263
-1.266,0.675,0.416,1.059,0.469,3.380
-1.217,0.662,0.406,1.090,0.510,3.487
-1.170,0.649,0.394,1.113,0.543,3.585
-1.122,0.636,0.385,1.128,0.568,3.676
-1.076,0.626,0.375,1.137,0.586,3.760
-1.032,0.615,0.367,1.139,0.596,3.840
-0.988,0.604,0.357,1.134,0.597,3.915
-0.944,0.596,0.349,1.126,0.587,3.987
-0.900,0.588,0.341,1.111,0.566,4.054
-0.854,0.581,0.334,1.093,0.538,4.119
-0.637,0.558,0.288,0.963,0.403,4.340
-0.589,0.556,0.276,0.925,0.379,4.375
-0.543,0.557,0.265,0.883,0.362,4.402
-0.498,0.560,0.253,0.840,0.353,4.419
-0.458,0.565,0.242,0.792,0.352,4.428
-0.424,0.570,0.232,0.742,0.351,4.430
-0.393,0.577,0.223,0.691,0.343,4.424
-0.362,0.584,0.215,0.637,0.328,4.410
-0.335,0.589,0.210,0.583,0.305,4.390
-0.310,0.592,0.207,0.528,0.281,4.361
-0.287,0.597,0.203,0.474,0.251,4.327
-0.266,0.604,0.200,0.418,0.218,4.287
-0.247,0.612,0.197,0.364,0.182,4.241
-0.225,0.620,0.195,0.312,0.145,4.191
-0.203,0.628,0.193,0.261,0.111,4.138
-0.183,0.638,0.192,0.214,0.084,4.082
-0.164,0.646,0.188,0.169,0.067,4.025
-0.145,0.655,0.185,0.129,0.060,3.965
-0.128,0.665,0.182,0.093,0.061,3.906
-0.111,0.675,0.181,0.059,0.070,3.847
-0.095,0.685,0.182,0.029,0.089,3.789
-0.087,0.694,0.182,0.011,0.105,3.750
-0.075,0.707,0.182,-0.015,0.130,3.692
-0.061,0.718,0.184,-0.038,0.160,3.633
-0.047,0.726,0.186,-0.059,0.193,3.576
-0.035,0.730,0.189,-0.077,0.226,3.520
-0.021,0.732,0.189,-0.092,0.259,3.465
0.036,0.741,0.206,-0.131,0.387,3.214
0.048,0.744,0.208,-0.133,0.399,3.159
0.061,0.748,0.211,-0.135,0.405,3.103
0.074,0.753,0.214,-0.134,0.408,3.046
0.089,0.758,0.220,-0.131,0.407,2.987
0.102,0.762,0.223,-0.127,0.402,2.926
0.117,0.768,0.227,-0.121,0.396,2.863
0.124,0.771,0.230,-0.117,0.391,2.819
0.134,0.778,0.230,-0.111,0.379,2.754
0.146,0.785,0.234,-0.102,0.365,2.686
0.157,0.795,0.239,-0.095,0.348,2.617

-1.305,0.555,0.163,-0.818,-1.420,-7.858
-1.425,0.615,0.155,-0.918,-1.461,-7.729
-1.544,0.674,0.149,-1.024,-1.485,-7.567
-1.663,0.732,0.143,-1.133,-1.488,-7.370
-1.778,0.782,0.142,-1.243,-1.469,-7.135
-1.889,0.827,0.143,-1.347,-1.430,-6.857
-1.990,0.868,0.149,-1.442,-1.373,-6.534
-2.086,0.903,0.159,-1.524,-1.299,-6.168
-2.172,0.938,0.175,-1.588,-1.214,-5.756
-2.247,0.977,0.198,-1.630,-1.127,-5.304
-2.312,1.021,0.221,-1.651,-1.044,-4.816
-2.375,1.073,0.244,-1.647,-0.973,-4.299
-2.403,1.122,0.266,-1.622,-0.907,-3.756
-2.415,1.152,0.283,-1.571,-0.808,-3.186
-2.420,1.163,0.307,-1.492,-0.668,-2.601
-2.418,1.160,0.336,-1.389,-0.503,-2.009
-2.406,1.147,0.371,-1.262,-0.335,-1.424
-2.226,0.982,0.527,-0.551,0.244,0.941
-2.158,0.937,0.547,-0.405,0.295,1.338
-2.085,0.892,0.560,-0.267,0.326,1.699
-2.031,0.864,0.568,-0.181,0.336,1.920
-1.948,0.825,0.579,-0.059,0.339,2.226
-1.861,0.788,0.585,0.055,0.330,2.506
-1.770,0.756,0.588,0.162,0.309,2.760
-1.679,0.728,0.586,0.263,0.282,2.989
-1.591,0.701,0.584,0.362,0.252,3.194
-1.507,0.676,0.579,0.458,0.218,3.377
-1.429,0.649,0.570,0.549,0.181,3.539
-1.355,0.626,0.559,0.639,0.147,3.680
-1.282,0.606,0.545,0.724,0.116,3.805
-1.213,0.589,0.531,0.806,0.086,3.912
-1.149,0.578,0.518,0.882,0.061,4.005
-1.087,0.567,0.505,0.954,0.042,4.081
-1.030,0.558,0.489,1.021,0.029,4.145
-0.976,0.550,0.472,1.083,0.022,4.196
-0.924,0.544,0.454,1.142,0.022,4.237
-0.876,0.538,0.439,1.195,0.024,4.270
-0.834,0.534,0.422,1.244,0.029,4.295
-0.794,0.530,0.405,1.290,0.032,4.314
-0.756,0.526,0.386,1.330,0.034,4.329
-0.721,0.525,0.369,1.368,0.033,4.340
-0.684,0.524,0.351,1.398,0.031,4.344
-0.648,0.522,0.331,1.425,0.028,4.345
-0.610,0.521,0.310,1.445,0.027,4.342
-0.443,0.531,0.217,1.453,0.067,4.274
-0.406,0.538,0.195,1.437,0.089,4.242
-0.370,0.545,0.175,1.414,0.116,4.205
-0.335,0.550,0.155,1.386,0.149,4.161
-0.303,0.554,0.136,1.349,0.186,4.112
-0.272,0.557,0.120,1.306,0.226,4.058
-0.243,0.558,0.104,1.256,0.269,3.997
-0.218,0.561,0.089,1.202,0.313,3.930
-0.195,0.566,0.077,1.140,0.353,3.857
-0.174,0.572,0.066,1.074,0.387,3.780
-0.156,0.580,0.056,1.003,0.415,3.699
-0.140,0.590,0.048,0.928,0.433,3.614
-0.124,0.600,0.039,0.849,0.443,3.526
-0.110,0.612,0.033,0.769,0.445,3.435
-0.097,0.624,0.029,0.690,0.441,3.344
-0.081,0.638,0.024,0.609,0.429,3.252
-0.067,0.652,0.022,0.528,0.416,3.164
-0.051,0.665,0.019,0.448,0.403,3.077
-0.035,0.677,0.019,0.370,0.392,2.994
-0.019,0.687,0.019,0.295,0.381,2.912
-0.005,0.697,0.020,0.220,0.376,2.834
0.010,0.709,0.022,0.149,0.374,2.757
0.024,0.725,0.023,0.081,0.376,2.682
0.037,0.740,0.026,0.015,0.382,2.606
0.048,0.756,0.030,-0.048,0.390,2.531
0.058,0.769,0.036,-0.105,0.400,2.454
0.062,0.779,0.043,-0.160,0.412,2.376
0.064,0.785,0.046,-0.195,0.419,2.324
0.065,0.793,0.054,-0.243,0.428,2.247
0.057,0.829,0.104,-0.418,0.415,1.893
0.053,0.835,0.112,-0.444,0.405,1.821
0.049,0.841,0.119,-0.466,0.399,1.753
0.044,0.848,0.128,-0.483,0.397,1.687
0.038,0.854,0.136,-0.496,0.399,1.622
0.029,0.861,0.142,-0.506,0.404,1.560
0.020,0.869,0.150,-0.511,0.411,1.504

-1.439,0.690,-0.092,0.965,-1.171,-7.039
-1.546,0.748,-0.128,0.862,-1.209,-6.870
-1.655,0.799,-0.161,0.750,-1.232,-6.661
-1.757,0.846,-0.192,0.632,-1.238,-6.414
-1.851,0.891,-0.222,0.509,-1.227,-6.128
-1.933,0.939,-0.246,0.384,-1.206,-5.804
-2.003,0.987,-0.265,0.258,-1.177,-5.441
-2.061,1.035,-0.279,0.133,-1.133,-5.047
-2.098,1.080,-0.287,0.009,-1.074,-4.621
-2.139,1.116,-0.290,-0.107,-0.998,-4.173
-2.179,1.135,-0.283,-0.217,-0.907,-3.713
-2.210,1.151,-0.279,-0.322,-0.791,-3.238
-2.224,1.169,-0.270,-0.415,-0.666,-2.750
-2.229,1.181,-0.251,-0.497,-0.540,-2.257
-2.228,1.180,-0.228,-0.569,-0.418,-1.767
-2.215,1.170,-0.201,-0.629,-0.303,-1.285
-2.047,1.034,-0.030,-0.747,0.127,0.695
-1.989,0.996,0.009,-0.738,0.185,1.046
-1.922,0.958,0.048,-0.717,0.232,1.374
-1.851,0.919,0.083,-0.686,0.268,1.676
-1.775,0.882,0.115,-0.644,0.297,1.954
-1.696,0.848,0.146,-0.591,0.322,2.210
-1.615,0.816,0.173,-0.530,0.344,2.445
-1.536,0.787,0.198,-0.463,0.362,2.655
-1.460,0.760,0.219,-0.391,0.379,2.846
-1.385,0.734,0.235,-0.314,0.390,3.014
-1.314,0.712,0.249,-0.234,0.396,3.162
-1.244,0.693,0.259,-0.153,0.394,3.292
-1.178,0.676,0.268,-0.072,0.385,3.401
-1.117,0.662,0.274,0.007,0.371,3.494
-1.059,0.649,0.276,0.086,0.353,3.572
-1.004,0.637,0.275,0.161,0.333,3.634
-0.955,0.627,0.273,0.231,0.310,3.684
-0.908,0.621,0.269,0.297,0.282,3.722
-0.864,0.618,0.265,0.357,0.250,3.748
-0.824,0.617,0.260,0.409,0.212,3.765
-0.788,0.616,0.250,0.453,0.169,3.774
-0.764,0.616,0.244,0.479,0.140,3.775
-0.733,0.618,0.235,0.512,0.092,3.771
-0.704,0.622,0.223,0.536,0.040,3.760
-0.673,0.627,0.210,0.554,-0.014,3.745
-0.542,0.649,0.144,0.560,-0.256,3.630
-0.517,0.651,0.126,0.548,-0.292,3.600
-0.493,0.653,0.110,0.532,-0.320,3.568
-0.470,0.657,0.096,0.514,-0.343,3.534
-0.446,0.661,0.080,0.494,-0.358,3.500
-0.424,0.664,0.065,0.470,-0.365,3.464
-0.401,0.667,0.050,0.447,-0.363,3.429
-0.380,0.669,0.036,0.424,-0.351,3.393
-0.361,0.673,0.024,0.399,-0.329,3.357
-0.344,0.677,0.012,0.375,-0.298,3.320
-0.329,0.683,0.000,0.350,-0.263,3.283
-0.314,0.690,-0.010,0.325,-0.227,3.246
-0.302,0.695,-0.019,0.297,-0.190,3.211
-0.289,0.699,-0.026,0.269,-0.156,3.176
-0.276,0.703,-0.032,0.238,-0.126,3.142
-0.263,0.707,-0.038,0.206,-0.098,3.110
-0.247,0.711,-0.044,0.172,-0.074,3.079
-0.231,0.715,-0.050,0.136,-0.054,3.049
-0.216,0.720,-0.053,0.098,-0.035,3.018
-0.199,0.727,-0.057,0.059,-0.017,2.988
-0.181,0.734,-0.056,0.017,0.000,2.957
-0.109,0.777,-0.051,-0.183,0.076,2.799
-0.095,0.785,-0.048,-0.230,0.096,2.756
-0.084,0.792,-0.043,-0.277,0.114,2.712
-0.072,0.799,-0.038,-0.321,0.127,2.665
-0.064,0.805,-0.031,-0.367,0.134,2.620
-0.056,0.810,-0.023,-0.413,0.132,2.572
-0.048,0.815,-0.015,-0.457,0.125,2.525
-0.040,0.819,-0.009,-0.499,0.114,2.475
-0.029,0.823,-0.003,-0.538,0.099,2.425
-0.021,0.826,0.004,-0.575,0.080,2.374
-0.013,0.827,0.011,-0.608,0.055,2.321
-0.005,0.829,0.018,-0.636,0.030,2.267
0.003,0.833,0.023,-0.663,0.004,2.210
0.008,0.837,0.026,-0.685,-0.020,2.153
0.013,0.841,0.032,-0.705,-0.044,2.094
0.019,0.844,0.036,-0.718,-0.063,2.036
0.025,0.848,0.042,-0.730,-0.078,1.975
0.030,0.851,0.045,-0.739,-0.084,1.915

1.077,0.687,0.142,0.267,-0.648,-1.787
1.117,0.622,0.148,0.221,-0.699,-2.044
1.145,0.547,0.160,0.167,-0.766,-2.337
1.163,0.468,0.173,0.099,-0.856,-2.661
1.179,0.398,0.176,0.027,-0.954,-3.018
1.190,0.331,0.169,-0.044,-1.030,-3.408
1.189,0.267,0.161,-0.105,-1.070,-3.826
1.172,0.207,0.148,-0.156,-1.060,-4.266
1.135,0.155,0.139,-0.196,-1.007,-4.727
1.081,0.112,0.130,-0.220,-0.913,-5.199
1.013,0.074,0.123,-0.230,-0.788,-5.671
0.930,0.046,0.116,-0.220,-0.633,-6.130
0.833,0.030,0.109,-0.194,-0.461,-6.566
0.722,0.033,0.103,-0.152,-0.279,-6.969
0.601,0.048,0.096,-0.095,-0.097,-7.328
0.473,0.061,0.090,-0.029,0.079,-7.638
0.337,0.077,0.088,0.043,0.241,-7.895
0.193,0.108,0.095,0.109,0.363,-8.100
0.046,0.148,0.102,0.158,0.434,-8.252
-0.105,0.189,0.103,0.189,0.461,-8.353
-0.256,0.230,0.101,0.199,0.449,-8.411
-0.399,0.273,0.089,0.188,0.391,-8.424
-0.997,0.475,0.052,-0.051,-0.182,-8.171
-1.119,0.532,0.046,-0.144,-0.306,-8.043
-1.236,0.597,0.042,-0.252,-0.419,-7.887
-1.353,0.661,0.042,-0.372,-0.526,-7.702
-1.466,0.725,0.041,-0.504,-0.634,-7.485
-1.576,0.792,0.042,-0.646,-0.742,-7.239
-1.679,0.856,0.047,-0.792,-0.848,-6.962
-1.775,0.914,0.049,-0.938,-0.949,-6.652
-1.860,0.964,0.057,-1.076,-1.034,-6.313
-1.932,1.008,0.064,-1.202,-1.103,-5.941
-1.990,1.051,0.073,-1.309,-1.149,-5.534
-2.041,1.092,0.084,-1.394,-1.170,-5.098
-2.080,1.133,0.098,-1.453,-1.165,-4.634
-2.091,1.170,0.116,-1.484,-1.134,-4.141
-2.118,1.188,0.139,-1.490,-1.059,-3.631
-2.138,1.201,0.168,-1.469,-0.978,-3.116
-2.136,1.215,0.200,-1.423,-0.885,-2.592
-2.017,1.158,0.343,-0.927,-0.306,-0.287
-1.968,1.124,0.370,-0.780,-0.188,0.133
-1.912,1.089,0.393,-0.628,-0.079,0.518
-1.852,1.052,0.410,-0.473,0.022,0.871
-1.790,1.015,0.426,-0.319,0.116,1.189
-1.723,0.980,0.437,-0.169,0.197,1.476
-1.655,0.948,0.444,-0.029,0.264,1.735
-1.586,0.917,0.449,0.103,0.314,1.967
-1.539,0.898,0.451,0.184,0.338,2.108
-1.469,0.871,0.452,0.298,0.362,2.300
-1.398,0.844,0.451,0.400,0.369,2.473
-1.330,0.817,0.448,0.491,0.361,2.628
-1.262,0.789,0.440,0.571,0.336,2.766
-1.194,0.765,0.431,0.643,0.301,2.889
-1.127,0.745,0.421,0.707,0.258,2.998
-1.062,0.725,0.408,0.763,0.212,3.092
-0.999,0.709,0.393,0.813,0.166,3.171
-0.938,0.697,0.382,0.858,0.122,3.238
-0.880,0.686,0.369,0.897,0.084,3.291
-0.828,0.677,0.356,0.930,0.051,3.330
-0.779,0.671,0.343,0.959,0.021,3.356
-0.735,0.669,0.331,0.982,-0.009,3.368
-0.693,0.668,0.320,1.000,-0.039,3.371
-0.654,0.668,0.309,1.013,-0.071,3.365
-0.618,0.667,0.297,1.023,-0.100,3.351
-0.490,0.684,0.243,1.015,-0.198,3.221
-0.465,0.690,0.227,1.004,-0.212,3.181
-0.443,0.696,0.210,0.990,-0.221,3.138
-0.424,0.701,0.195,0.974,-0.225,3.095
-0.402,0.707,0.181,0.955,-0.221,3.052
-0.385,0.712,0.164,0.934,-0.211,3.010
-0.368,0.717,0.148,0.910,-0.194,2.969
-0.352,0.725,0.137,0.884,-0.171,2.930
-0.337,0.734,0.122,0.856,-0.146,2.893
-0.320,0.742,0.106,0.825,-0.114,2.859
-0.305,0.751,0.091,0.792,-0.079,2.828
-0.294,0.758,0.079,0.756,-0.037,2.799
-0.285,0.761,0.067,0.717,0.003,2.772
-0.275,0.766,0.059,0.679,0.044,2.749
-0.264,0.771,0.051,0.639,0.084,2.729
-0.254,0.775,0.047,0.599,0.123,2.712

0.931,0.741,0.249,0.349,0.090,-1.472
0.992,0.709,0.249,0.331,0.000,-1.684
1.049,0.676,0.247,0.309,-0.089,-1.920
1.103,0.637,0.242,0.284,-0.165,-2.183
1.146,0.592,0.231,0.260,-0.214,-2.475
1.181,0.537,0.216,0.239,-0.225,-2.799
1.206,0.477,0.201,0.228,-0.192,-3.150
1.220,0.415,0.188,0.227,-0.113,-3.532
1.220,0.355,0.178,0.237,0.009,-3.940
1.208,0.292,0.176,0.260,0.166,-4.367
1.181,0.228,0.179,0.293,0.343,-4.806
1.137,0.170,0.185,0.334,0.521,-5.253
1.081,0.120,0.192,0.385,0.687,-5.698
1.012,0.078,0.201,0.442,0.833,-6.136
0.931,0.044,0.204,0.504,0.957,-6.563
0.839,0.018,0.202,0.571,1.059,-6.972
0.735,-0.003,0.197,0.645,1.141,-7.357
0.620,-0.015,0.189,0.719,1.204,-7.714
0.494,-0.010,0.183,0.793,1.244,-8.036
0.359,0.005,0.175,0.862,1.258,-8.316
0.215,0.025,0.164,0.921,1.246,-8.553
0.062,0.050,0.150,0.967,1.207,-8.744
-0.089,0.087,0.135,0.996,1.134,-8.889
-0.244,0.138,0.120,1.003,1.010,-8.987
-0.398,0.198,0.104,0.983,0.827,-9.038
-0.546,0.255,0.080,0.943,0.618,-9.052
-1.193,0.501,-0.040,0.543,-0.175,-8.642
-1.336,0.575,-0.065,0.402,-0.300,-8.431
-1.475,0.659,-0.086,0.247,-0.407,-8.172
-1.607,0.747,-0.107,0.079,-0.493,-7.870
-1.733,0.830,-0.126,-0.096,-0.561,-7.524
-1.850,0.906,-0.140,-0.271,-0.604,-7.138
-1.958,0.972,-0.150,-0.440,-0.626,-6.712
-2.055,1.028,-0.153,-0.597,-0.619,-6.249
-2.145,1.076,-0.147,-0.739,-0.596,-5.754
-2.220,1.122,-0.134,-0.858,-0.567,-5.230
-2.279,1.160,-0.112,-0.955,-0.531,-4.680
-2.334,1.187,-0.084,-1.027,-0.492,-4.114
-2.370,1.204,-0.050,-1.075,-0.464,-3.539
-2.389,1.213,-0.013,-1.098,-0.443,-2.959
-2.394,1.212,0.025,-1.098,-0.422,-2.385
-2.226,1.107,0.202,-0.838,-0.267,0.039
-2.155,1.070,0.233,-0.742,-0.218,0.483
-2.075,1.031,0.261,-0.635,-0.164,0.895
-1.991,0.991,0.287,-0.523,-0.106,1.276
-1.904,0.949,0.312,-0.407,-0.053,1.627
-1.813,0.910,0.337,-0.291,-0.010,1.951
-1.753,0.885,0.351,-0.214,0.010,2.150
-1.662,0.852,0.370,-0.102,0.022,2.425
-1.571,0.817,0.386,0.004,0.017,2.672
-1.480,0.780,0.399,0.105,-0.007,2.889
-1.390,0.746,0.403,0.203,-0.043,3.078
-1.303,0.718,0.404,0.297,-0.084,3.237
-1.220,0.692,0.402,0.385,-0.131,3.369
-1.143,0.670,0.395,0.470,-0.182,3.476
-1.068,0.654,0.384,0.549,-0.233,3.555
-1.000,0.641,0.374,0.624,-0.280,3.613
-0.939,0.631,0.362,0.693,-0.320,3.650
-0.884,0.628,0.351,0.756,-0.359,3.669
-0.835,0.628,0.338,0.813,-0.392,3.674
-0.795,0.629,0.327,0.865,-0.421,3.665
-0.757,0.630,0.314,0.911,-0.448,3.646
-0.726,0.633,0.298,0.951,-0.471,3.619
-0.627,0.655,0.216,1.065,-0.494,3.474
-0.611,0.664,0.196,1.080,-0.484,3.441
-0.597,0.674,0.177,1.091,-0.469,3.411
-0.584,0.684,0.159,1.095,-0.448,3.383
-0.571,0.694,0.137,1.096,-0.422,3.361
-0.560,0.702,0.115,1.092,-0.388,3.344
-0.544,0.710,0.095,1.088,-0.343,3.330
-0.527,0.716,0.078,1.079,-0.286,3.323
-0.508,0.721,0.060,1.068,-0.219,3.319
-0.487,0.729,0.045,1.054,-0.145,3.321
-0.469,0.742,0.034,1.032,-0.071,3.330
-0.452,0.751,0.020,1.007,0.001,3.342
-0.430,0.756,0.007,0.978,0.080,3.353
-0.408,0.759,-0.002,0.946,0.167,3.368
-0.389,0.760,-0.005,0.908,0.251,3.386
-0.369,0.760,-0.006,0.863,0.329,3.407
-0.351,0.760,-0.006,0.813,0.399,3.428

-1.325,0.687,-0.020,-0.136,-0.234,-7.194
-1.471,0.786,-0.025,-0.289,-0.413,-6.809
-1.573,0.861,-0.027,-0.410,-0.520,-6.488
-1.670,0.931,-0.026,-0.531,-0.606,-6.137
-1.759,0.992,-0.024,-0.648,-0.670,-5.764
-1.840,1.041,-0.018,-0.757,-0.717,-5.365
-1.915,1.082,-0.010,-0.850,-0.748,-4.947
-1.977,1.118,0.001,-0.928,-0.763,-4.509
-2.032,1.149,0.018,-0.985,-0.766,-4.055
-2.077,1.173,0.037,-1.021,-0.758,-3.591
-2.110,1.194,0.062,-1.034,-0.745,-3.118
-2.134,1.206,0.088,-1.027,-0.726,-2.642
-2.147,1.212,0.116,-0.999,-0.705,-2.167
-2.148,1.211,0.142,-0.954,-0.678,-1.696
-2.135,1.207,0.165,-0.889,-0.641,-1.238
-2.112,1.196,0.191,-0.807,-0.587,-0.794
-1.944,1.075,0.289,-0.312,-0.272,0.921
-1.890,1.039,0.308,-0.180,-0.208,1.263
-1.831,1.004,0.323,-0.047,-0.153,1.586
-1.770,0.968,0.337,0.087,-0.112,1.889
-1.706,0.933,0.346,0.218,-0.080,2.171
-1.639,0.899,0.352,0.347,-0.060,2.430
-1.570,0.866,0.358,0.471,-0.048,2.667
-1.500,0.837,0.360,0.589,-0.045,2.882
-1.431,0.810,0.360,0.699,-0.049,3.076
-1.363,0.783,0.359,0.801,-0.060,3.250
-1.298,0.757,0.354,0.895,-0.079,3.406
-1.234,0.733,0.346,0.979,-0.104,3.542
-1.173,0.711,0.337,1.053,-0.135,3.662
-1.114,0.693,0.326,1.116,-0.171,3.766
-1.053,0.677,0.312,1.170,-0.212,3.856
-0.995,0.664,0.297,1.212,-0.254,3.932
-0.939,0.652,0.282,1.244,-0.295,3.997
-0.885,0.644,0.266,1.267,-0.334,4.050
-0.832,0.638,0.251,1.285,-0.372,4.093
-0.782,0.635,0.233,1.293,-0.407,4.126
-0.733,0.633,0.215,1.294,-0.438,4.152
-0.686,0.633,0.197,1.290,-0.466,4.170
-0.641,0.635,0.178,1.277,-0.490,4.181
-0.474,0.663,0.099,1.146,-0.576,4.152
-0.442,0.667,0.081,1.098,-0.592,4.130
-0.410,0.670,0.063,1.045,-0.606,4.106
-0.378,0.671,0.046,0.985,-0.615,4.079
-0.350,0.673,0.028,0.922,-0.618,4.048
-0.324,0.676,0.015,0.855,-0.614,4.016
-0.298,0.682,0.002,0.783,-0.604,3.981
-0.275,0.686,-0.008,0.709,-0.591,3.944
-0.251,0.688,-0.018,0.634,-0.573,3.905
-0.231,0.692,-0.027,0.559,-0.549,3.866
-0.210,0.696,-0.032,0.484,-0.518,3.826
-0.187,0.704,-0.037,0.409,-0.480,3.787
-0.165,0.713,-0.041,0.335,-0.436,3.748
-0.143,0.720,-0.044,0.265,-0.387,3.710
-0.122,0.723,-0.048,0.197,-0.334,3.674
-0.101,0.724,-0.051,0.133,-0.279,3.635
-0.082,0.728,-0.052,0.073,-0.219,3.597
-0.063,0.733,-0.052,0.018,-0.161,3.557
-0.044,0.739,-0.048,-0.031,-0.105,3.515
-0.024,0.742,-0.042,-0.077,-0.052,3.474
0.048,0.736,-0.012,-0.214,0.145,3.269
0.061,0.735,-0.004,-0.235,0.180,3.216
0.074,0.735,0.004,-0.253,0.208,3.160
0.089,0.738,0.011,-0.269,0.230,3.100
0.102,0.743,0.015,-0.283,0.247,3.035
0.114,0.748,0.023,-0.294,0.259,2.967
0.126,0.756,0.031,-0.304,0.265,2.896
0.138,0.764,0.037,-0.313,0.268,2.819
0.147,0.773,0.043,-0.321,0.268,2.739
0.155,0.779,0.051,-0.329,0.266,2.657
0.165,0.788,0.057,-0.336,0.263,2.573
0.174,0.797,0.063,-0.345,0.260,2.489
0.181,0.805,0.070,-0.352,0.253,2.405
0.189,0.812,0.074,-0.361,0.246,2.321
0.196,0.821,0.080,-0.369,0.235,2.238
0.203,0.830,0.084,-0.379,0.222,2.156
0.209,0.842,0.085,-0.390,0.206,2.074
0.212,0.855,0.089,-0.399,0.187,1.992
0.214,0.869,0.091,-0.410,0.166,1.911
0.216,0.883,0.095,-0.418,0.143,1.832
0.221,0.896,0.097,-0.426,0.125,1.751

-1.407,0.668,-0.067,-1.083,-0.897,-7.723
-1.536,0.737,-0.060,-1.271,-0.940,-7.492
-1.663,0.799,-0.050,-1.445,-0.973,-7.234
-1.782,0.856,-0.040,-1.600,-0.993,-6.945
-1.895,0.910,-0.028,-1.727,-0.999,-6.621
-1.992,0.965,-0.013,-1.832,-0.990,-6.257
-2.074,1.021,0.002,-1.906,-0.958,-5.850
-2.143,1.074,0.020,-1.951,-0.900,-5.402
-2.208,1.125,0.040,-1.967,-0.819,-4.916
-2.255,1.175,0.063,-1.954,-0.720,-4.395
-2.285,1.219,0.094,-1.919,-0.599,-3.845
-2.329,1.247,0.132,-1.860,-0.465,-3.282
-2.347,1.277,0.175,-1.780,-0.351,-2.713
-2.355,1.292,0.217,-1.681,-0.235,-2.145
-2.354,1.291,0.262,-1.561,-0.116,-1.589
-2.340,1.271,0.305,-1.424,0.001,-1.048
-2.120,1.122,0.465,-0.662,0.448,1.175
-2.051,1.083,0.492,-0.499,0.508,1.576
-1.975,1.039,0.515,-0.343,0.547,1.950
-1.893,0.994,0.532,-0.194,0.563,2.299
-1.804,0.949,0.548,-0.054,0.558,2.624
-1.712,0.909,0.560,0.078,0.532,2.928
-1.616,0.870,0.571,0.202,0.487,3.208
-1.551,0.845,0.575,0.282,0.449,3.382
-1.456,0.808,0.577,0.397,0.380,3.622
-1.361,0.774,0.575,0.506,0.301,3.835
-1.270,0.742,0.570,0.609,0.216,4.023
-1.183,0.715,0.564,0.707,0.132,4.185
-1.102,0.690,0.554,0.797,0.051,4.319
-1.026,0.671,0.545,0.882,-0.024,4.426
-0.955,0.652,0.533,0.960,-0.088,4.508
-0.889,0.637,0.521,1.031,-0.145,4.568
-0.831,0.626,0.508,1.093,-0.203,4.609
-0.781,0.619,0.499,1.148,-0.268,4.633
-0.735,0.615,0.486,1.196,-0.345,4.640
-0.695,0.610,0.472,1.237,-0.429,4.635
-0.654,0.604,0.460,1.273,-0.519,4.617
-0.617,0.599,0.446,1.304,-0.612,4.591
-0.581,0.599,0.427,1.331,-0.705,4.560
-0.544,0.605,0.408,1.356,-0.797,4.525
-0.506,0.613,0.386,1.377,-0.884,4.486
-0.366,0.650,0.279,1.439,-1.153,4.295
-0.337,0.660,0.253,1.445,-1.181,4.252
-0.310,0.669,0.224,1.449,-1.192,4.209
-0.285,0.678,0.197,1.451,-1.188,4.169
-0.262,0.686,0.168,1.449,-1.167,4.129
-0.239,0.693,0.142,1.445,-1.137,4.093
-0.220,0.700,0.117,1.438,-1.097,4.060
-0.201,0.708,0.094,1.426,-1.051,4.029
-0.184,0.715,0.072,1.408,-1.000,3.999
-0.166,0.719,0.050,1.386,-0.945,3.972
-0.148,0.721,0.029,1.358,-0.888,3.947
-0.128,0.722,0.009,1.324,-0.829,3.924
-0.107,0.721,-0.009,1.287,-0.766,3.903
-0.085,0.718,-0.026,1.244,-0.697,3.882
-0.062,0.716,-0.040,1.199,-0.624,3.862
-0.041,0.716,-0.054,1.149,-0.547,3.842
-0.017,0.715,-0.065,1.096,-0.467,3.820
0.006,0.713,-0.074,1.040,-0.387,3.795
0.030,0.711,-0.082,0.980,-0.308,3.767
0.054,0.709,-0.088,0.917,-0.230,3.734
0.077,0.708,-0.096,0.855,-0.153,3.697
0.100,0.707,-0.101,0.789,-0.081,3.655
0.180,0.720,-0.104,0.495,0.148,3.394
0.194,0.727,-0.103,0.424,0.177,3.315
0.204,0.735,-0.099,0.353,0.196,3.227
0.214,0.745,-0.094,0.282,0.206,3.133
0.224,0.755,-0.092,0.211,0.209,3.033
0.229,0.766,-0.087,0.140,0.201,2.930
0.234,0.778,-0.084,0.072,0.185,2.822
0.239,0.790,-0.078,0.006,0.161,2.713
0.243,0.799,-0.074,-0.056,0.133,2.602
0.246,0.806,-0.066,-0.117,0.103,2.491
0.246,0.809,-0.059,-0.173,0.072,2.383
0.245,0.815,-0.052,-0.225,0.042,2.277
0.244,0.822,-0.047,-0.272,0.011,2.176
0.244,0.831,-0.042,-0.316,-0.017,2.079
0.246,0.839,-0.037,-0.354,-0.038,1.987
0.250,0.849,-0.033,-0.386,-0.051,1.900
0.254,0.858,-0.032,-0.413,-0.052,1.817

-1.298,0.707,0.096,-0.860,-0.731,-6.677
-1.393,0.752,0.100,-0.942,-0.750,-6.502
-1.481,0.795,0.104,-1.017,-0.763,-6.300
-1.565,0.836,0.106,-1.084,-0.766,-6.068
-1.643,0.874,0.109,-1.140,-0.761,-5.807
-1.711,0.911,0.114,-1.181,-0.743,-5.514
-1.777,0.943,0.123,-1.206,-0.708,-5.192
-1.842,0.973,0.136,-1.215,-0.664,-4.842
-1.904,1.003,0.151,-1.206,-0.619,-4.465
-1.961,1.030,0.165,-1.182,-0.579,-4.064
-2.010,1.052,0.182,-1.144,-0.544,-3.641
-2.054,1.069,0.203,-1.096,-0.509,-3.200
-2.100,1.084,0.225,-1.039,-0.480,-2.751
-2.127,1.100,0.248,-0.974,-0.460,-2.297
-2.142,1.117,0.268,-0.906,-0.436,-1.841
-2.146,1.131,0.288,-0.832,-0.407,-1.393
-2.137,1.139,0.307,-0.753,-0.366,-0.955
-2.000,1.065,0.409,-0.311,-0.052,0.888
-1.952,1.036,0.426,-0.201,0.014,1.233
-1.900,1.005,0.441,-0.090,0.069,1.561
-1.842,0.975,0.455,0.022,0.113,1.872
-1.779,0.944,0.468,0.134,0.145,2.166
-1.714,0.912,0.477,0.245,0.164,2.440
-1.646,0.880,0.479,0.353,0.177,2.697
-1.579,0.848,0.479,0.460,0.185,2.935
-1.531,0.829,0.479,0.530,0.188,3.084
-1.457,0.802,0.473,0.632,0.194,3.294
-1.385,0.778,0.467,0.730,0.203,3.485
-1.318,0.758,0.458,0.824,0.217,3.660
-1.256,0.738,0.450,0.911,0.233,3.817
-1.198,0.720,0.442,0.993,0.245,3.957
-1.146,0.702,0.432,1.067,0.252,4.081
-1.096,0.683,0.424,1.133,0.252,4.192
-1.047,0.666,0.416,1.192,0.244,4.290
-0.998,0.652,0.406,1.242,0.229,4.377
-0.949,0.639,0.394,1.285,0.208,4.455
-0.900,0.629,0.379,1.319,0.183,4.521
-0.852,0.619,0.363,1.345,0.156,4.578
-0.804,0.609,0.349,1.365,0.129,4.625
-0.758,0.598,0.334,1.379,0.098,4.664
-0.712,0.589,0.317,1.387,0.065,4.694
-0.666,0.582,0.298,1.387,0.029,4.717
-0.621,0.576,0.281,1.380,-0.010,4.730
-0.580,0.574,0.263,1.369,-0.047,4.734
-0.419,0.578,0.180,1.270,-0.151,4.669
-0.386,0.578,0.162,1.237,-0.177,4.645
-0.354,0.578,0.146,1.202,-0.203,4.618
-0.324,0.576,0.130,1.164,-0.232,4.587
-0.295,0.573,0.112,1.126,-0.260,4.553
-0.264,0.574,0.098,1.086,-0.288,4.514
-0.233,0.575,0.081,1.043,-0.314,4.472
-0.203,0.577,0.065,0.999,-0.336,4.425
-0.173,0.581,0.051,0.955,-0.355,4.374
-0.144,0.585,0.036,0.909,-0.368,4.320
-0.116,0.590,0.022,0.864,-0.377,4.260
-0.086,0.594,0.008,0.818,-0.380,4.198
-0.060,0.601,-0.004,0.770,-0.378,4.132
-0.032,0.608,-0.014,0.724,-0.371,4.062
-0.003,0.619,-0.023,0.674,-0.358,3.988
0.025,0.634,-0.033,0.620,-0.336,3.909
0.051,0.652,-0.041,0.565,-0.308,3.825
0.074,0.668,-0.048,0.508,-0.274,3.734
0.097,0.683,-0.052,0.449,-0.234,3.640
0.117,0.695,-0.055,0.387,-0.193,3.540
0.138,0.706,-0.060,0.324,-0.150,3.436
0.156,0.716,-0.061,0.261,-0.106,3.330
0.212,0.763,-0.061,-0.003,0.082,2.839
0.221,0.777,-0.057,-0.059,0.117,2.722
0.230,0.788,-0.054,-0.112,0.146,2.605
0.237,0.794,-0.049,-0.163,0.169,2.488
0.241,0.801,-0.043,-0.210,0.189,2.372
0.244,0.805,-0.038,-0.253,0.210,2.258
0.247,0.810,-0.032,-0.292,0.231,2.145
0.248,0.814,-0.025,-0.326,0.254,2.033
0.245,0.818,-0.017,-0.354,0.277,1.925
0.240,0.824,-0.011,-0.380,0.297,1.816
0.235,0.829,-0.003,-0.400,0.314,1.716
0.229,0.834,0.007,-0.416,0.326,1.617
0.224,0.839,0.016,-0.429,0.334,1.524
0.218,0.844,0.025,-0.437,0.338,1.435

1.055,0.737,0.151,-0.187,0.615,-1.387
1.101,0.691,0.170,-0.234,0.514,-1.650
1.137,0.638,0.187,-0.283,0.391,-1.950
1.163,0.585,0.204,-0.330,0.253,-2.285
1.178,0.527,0.220,-0.372,0.117,-2.653
1.183,0.464,0.233,-0.405,-0.009,-3.048
1.176,0.402,0.242,-0.430,-0.120,-3.460
1.159,0.346,0.253,-0.444,-0.213,-3.883
1.137,0.304,0.262,-0.448,-0.272,-4.310
1.106,0.278,0.269,-0.440,-0.297,-4.732
1.062,0.263,0.276,-0.419,-0.295,-5.140
1.001,0.250,0.281,-0.385,-0.276,-5.528
0.928,0.235,0.289,-0.339,-0.242,-5.890
0.845,0.216,0.292,-0.284,-0.193,-6.224
0.752,0.202,0.292,-0.218,-0.136,-6.524
0.653,0.193,0.288,-0.143,-0.073,-6.788
0.551,0.194,0.283,-0.062,-0.013,-7.015
0.443,0.204,0.273,0.024,0.044,-7.209
0.331,0.219,0.266,0.110,0.093,-7.370
0.211,0.238,0.257,0.190,0.132,-7.499
0.080,0.260,0.248,0.264,0.159,-7.596
-0.533,0.426,0.215,0.387,0.050,-7.676
-0.688,0.484,0.209,0.365,-0.064,-7.622
-0.840,0.536,0.198,0.326,-0.199,-7.553
-0.991,0.586,0.187,0.270,-0.336,-7.466
-1.139,0.637,0.175,0.201,-0.469,-7.357
-1.284,0.693,0.165,0.117,-0.592,-7.220
-1.421,0.752,0.158,0.022,-0.705,-7.048
-1.552,0.814,0.150,-0.083,-0.812,-6.838
-1.676,0.882,0.146,-0.196,-0.914,-6.585
-1.791,0.951,0.139,-0.312,-1.010,-6.289
-1.892,1.016,0.134,-0.429,-1.094,-5.949
-1.984,1.075,0.129,-0.541,-1.162,-5.570
-2.057,1.130,0.127,-0.644,-1.208,-5.151
-2.119,1.177,0.129,-0.731,-1.223,-4.695
-2.175,1.216,0.135,-0.800,-1.212,-4.209
-2.216,1.252,0.147,-0.847,-1.182,-3.692
-2.240,1.279,0.160,-0.872,-1.129,-3.149
-2.269,1.287,0.179,-0.871,-1.046,-2.591
-2.236,1.209,0.289,-0.597,-0.619,-0.198
-2.180,1.157,0.325,-0.446,-0.474,0.465
-2.128,1.111,0.350,-0.320,-0.370,0.925
-2.065,1.061,0.375,-0.186,-0.279,1.349
-1.996,1.008,0.397,-0.050,-0.202,1.742
-1.918,0.958,0.415,0.086,-0.144,2.101
-1.834,0.912,0.428,0.220,-0.103,2.426
-1.747,0.868,0.435,0.349,-0.082,2.719
-1.686,0.840,0.438,0.431,-0.076,2.897
-1.597,0.802,0.440,0.549,-0.078,3.137
-1.510,0.767,0.436,0.661,-0.093,3.349
-1.423,0.737,0.430,0.763,-0.114,3.534
-1.338,0.712,0.419,0.859,-0.136,3.694
-1.256,0.693,0.402,0.946,-0.154,3.829
-1.176,0.678,0.389,1.025,-0.171,3.944
-1.103,0.667,0.374,1.095,-0.193,4.039
-1.035,0.655,0.356,1.157,-0.213,4.114
-0.972,0.645,0.339,1.212,-0.232,4.175
-0.915,0.639,0.320,1.260,-0.251,4.219
-0.860,0.632,0.299,1.300,-0.265,4.249
-0.809,0.626,0.277,1.337,-0.275,4.269
-0.759,0.624,0.255,1.365,-0.278,4.277
-0.561,0.631,0.142,1.429,-0.198,4.230
-0.521,0.632,0.114,1.425,-0.155,4.211
-0.482,0.634,0.089,1.415,-0.101,4.191
-0.443,0.640,0.064,1.397,-0.037,4.171
-0.403,0.643,0.038,1.373,0.035,4.150
-0.377,0.644,0.021,1.353,0.086,4.138
-0.339,0.643,-0.000,1.315,0.170,4.119
-0.306,0.645,-0.018,1.270,0.261,4.099
-0.272,0.649,-0.034,1.216,0.352,4.080
-0.239,0.655,-0.046,1.156,0.444,4.061
-0.205,0.661,-0.054,1.088,0.535,4.041
-0.172,0.664,-0.062,1.011,0.623,4.020
-0.138,0.668,-0.068,0.927,0.707,3.997
-0.105,0.672,-0.069,0.836,0.783,3.974
-0.072,0.676,-0.070,0.740,0.850,3.947
-0.041,0.680,-0.068,0.639,0.909,3.918
-0.008,0.684,-0.063,0.532,0.959,3.885
0.022,0.687,-0.058,0.424,0.997,3.847
0.050,0.688,-0.051,0.313,1.025,3.806

1.030,0.682,0.256,0.536,-0.223,-1.460
1.112,0.663,0.257,0.531,-0.338,-1.677
1.189,0.633,0.255,0.519,-0.465,-1.934
1.254,0.593,0.250,0.501,-0.597,-2.230
1.312,0.539,0.243,0.478,-0.724,-2.566
1.365,0.477,0.235,0.448,-0.842,-2.931
1.407,0.410,0.220,0.413,-0.945,-3.313
1.437,0.339,0.200,0.377,-1.013,-3.716
1.450,0.272,0.175,0.341,-1.042,-4.140
1.445,0.205,0.145,0.305,-1.035,-4.586
1.431,0.139,0.117,0.275,-0.978,-5.055
1.411,0.082,0.089,0.247,-0.856,-5.544
1.378,0.038,0.065,0.225,-0.670,-6.048
1.328,-0.005,0.053,0.210,-0.441,-6.557
1.249,-0.051,0.049,0.200,-0.198,-7.055
1.144,-0.088,0.056,0.193,0.020,-7.529
1.018,-0.110,0.066,0.185,0.190,-7.968
0.875,-0.119,0.076,0.176,0.303,-8.364
0.723,-0.115,0.083,0.160,0.364,-8.713
0.561,-0.095,0.080,0.138,0.384,-9.013
0.393,-0.060,0.072,0.107,0.379,-9.264
0.215,-0.011,0.062,0.066,0.359,-9.466
-0.610,0.286,0.049,-0.309,-0.013,-9.748
-0.799,0.359,0.050,-0.436,-0.150,-9.694
-0.981,0.433,0.053,-0.571,-0.279,-9.597
-1.160,0.506,0.059,-0.716,-0.387,-9.458
-1.335,0.583,0.066,-0.865,-0.478,-9.273
-1.505,0.657,0.078,-1.016,-0.561,-9.040
-1.669,0.732,0.091,-1.167,-0.648,-8.758
-1.824,0.811,0.102,-1.312,-0.744,-8.424
-1.937,0.890,0.118,-1.445,-0.840,-8.036
-2.062,0.958,0.134,-1.561,-0.906,-7.600
-2.168,1.030,0.151,-1.651,-0.962,-7.121
-2.250,1.107,0.171,-1.710,-0.992,-6.599
-2.299,1.164,0.198,-1.736,-0.975,-6.036
-2.390,1.182,0.231,-1.721,-0.907,-5.447
-2.478,1.194,0.269,-1.661,-0.857,-4.841
-2.535,1.209,0.313,-1.520,-0.799,-3.996
-2.554,1.210,0.342,-1.368,-0.726,-3.342
-2.522,1.091,0.467,-0.429,-0.313,-0.576
-2.469,1.057,0.487,-0.200,-0.263,-0.003
-2.402,1.015,0.499,0.015,-0.236,0.527
-2.323,0.967,0.505,0.211,-0.231,1.014
-2.233,0.916,0.505,0.386,-0.245,1.457
-2.138,0.862,0.500,0.542,-0.277,1.856
-2.042,0.807,0.492,0.679,-0.326,2.214
-1.941,0.756,0.478,0.800,-0.387,2.532
-1.834,0.711,0.464,0.911,-0.453,2.813
-1.728,0.670,0.446,1.011,-0.517,3.058
-1.624,0.637,0.426,1.104,-0.573,3.267
-1.523,0.611,0.408,1.189,-0.618,3.445
-1.428,0.592,0.391,1.267,-0.656,3.591
-1.340,0.577,0.374,1.338,-0.684,3.709
-1.258,0.563,0.359,1.399,-0.709,3.799
-1.186,0.551,0.342,1.454,-0.729,3.865
-1.119,0.542,0.323,1.499,-0.747,3.910
-1.059,0.537,0.305,1.538,-0.763,3.933
-1.004,0.537,0.286,1.569,-0.776,3.940
-0.955,0.539,0.264,1.593,-0.783,3.929
-0.909,0.542,0.242,1.611,-0.780,3.908
-0.870,0.547,0.217,1.624,-0.765,3.877
-0.728,0.595,0.113,1.631,-0.559,3.706
-0.701,0.607,0.092,1.623,-0.486,3.673
-0.672,0.616,0.070,1.609,-0.407,3.647
-0.643,0.624,0.048,1.590,-0.312,3.627
-0.614,0.633,0.025,1.567,-0.202,3.612
-0.585,0.642,0.007,1.537,-0.077,3.602
-0.557,0.649,-0.013,1.502,0.057,3.598
-0.532,0.655,-0.028,1.459,0.196,3.598
-0.506,0.659,-0.038,1.410,0.333,3.606
-0.483,0.664,-0.045,1.353,0.464,3.617
-0.459,0.670,-0.049,1.288,0.583,3.632
-0.437,0.674,-0.050,1.219,0.687,3.649
-0.415,0.676,-0.049,1.144,0.778,3.665
-0.393,0.676,-0.049,1.064,0.850,3.682
-0.371,0.674,-0.049,0.981,0.907,3.699
-0.348,0.671,-0.047,0.897,0.946,3.715
-0.325,0.668,-0.043,0.810,0.971,3.729
-0.301,0.669,-0.037,0.723,0.978,3.741
-0.277,0.669,-0.032,0.634,0.970,3.749

-1.541,0.561,-0.086,-0.303,-0.492,-8.995
-1.693,0.631,-0.103,-0.415,-0.459,-8.782
-1.836,0.702,-0.114,-0.525,-0.410,-8.517
-1.977,0.774,-0.121,-0.628,-0.360,-8.197
-2.105,0.847,-0.127,-0.727,-0.317,-7.821
-2.222,0.920,-0.125,-0.818,-0.281,-7.388
-2.325,0.994,-0.120,-0.900,-0.251,-6.903
-2.413,1.067,-0.113,-0.973,-0.218,-6.366
-2.487,1.133,-0.101,-1.032,-0.177,-5.788
-2.554,1.187,-0.081,-1.078,-0.133,-5.180
-2.608,1.224,-0.059,-1.107,-0.095,-4.547
-2.644,1.237,-0.028,-1.117,-0.055,-3.899
-2.686,1.224,0.020,-1.104,-0.009,-3.028
-2.689,1.205,0.060,-1.070,0.004,-2.380
-2.671,1.182,0.096,-1.021,0.013,-1.745
-2.396,1.024,0.247,-0.653,0.098,0.663
-2.307,0.976,0.278,-0.548,0.128,1.120
-2.210,0.925,0.307,-0.440,0.154,1.539
-2.111,0.873,0.332,-0.329,0.172,1.923
-2.008,0.824,0.358,-0.214,0.180,2.272
-1.904,0.778,0.378,-0.100,0.175,2.587
-1.799,0.739,0.395,0.013,0.155,2.866
-1.695,0.702,0.411,0.127,0.126,3.110
-1.593,0.667,0.418,0.239,0.089,3.320
-1.495,0.633,0.421,0.354,0.052,3.498
-1.403,0.604,0.422,0.469,0.016,3.647
-1.315,0.580,0.424,0.585,-0.017,3.766
-1.233,0.562,0.423,0.699,-0.050,3.861
-1.161,0.548,0.420,0.810,-0.083,3.931
-1.096,0.537,0.413,0.917,-0.118,3.981
-1.038,0.529,0.403,1.018,-0.155,4.012
-0.987,0.521,0.393,1.114,-0.196,4.027
-0.943,0.517,0.382,1.204,-0.239,4.029
-0.902,0.515,0.367,1.287,-0.286,4.022
-0.865,0.518,0.350,1.364,-0.337,4.008
-0.841,0.523,0.337,1.410,-0.372,3.996
-0.808,0.530,0.316,1.474,-0.426,3.977
-0.772,0.540,0.293,1.529,-0.477,3.959
-0.739,0.549,0.267,1.578,-0.521,3.941
-0.602,0.603,0.132,1.692,-0.595,3.893
-0.573,0.616,0.104,1.689,-0.586,3.888
-0.545,0.627,0.076,1.674,-0.571,3.885
-0.517,0.638,0.049,1.648,-0.547,3.882
-0.489,0.649,0.023,1.612,-0.518,3.881
-0.459,0.660,0.001,1.567,-0.492,3.884
-0.434,0.666,-0.019,1.511,-0.470,3.889
-0.408,0.667,-0.039,1.449,-0.453,3.890
-0.382,0.668,-0.057,1.381,-0.435,3.888
-0.357,0.668,-0.074,1.307,-0.414,3.881
-0.332,0.666,-0.090,1.228,-0.386,3.871
-0.307,0.663,-0.103,1.147,-0.357,3.855
-0.284,0.662,-0.114,1.064,-0.327,3.834
-0.261,0.663,-0.121,0.981,-0.299,3.812
-0.238,0.664,-0.126,0.899,-0.274,3.787
-0.216,0.662,-0.129,0.818,-0.250,3.759
-0.196,0.662,-0.131,0.740,-0.230,3.729
-0.176,0.663,-0.131,0.662,-0.214,3.697
-0.156,0.665,-0.131,0.585,-0.201,3.662
-0.136,0.668,-0.128,0.510,-0.192,3.624
-0.037,0.702,-0.123,0.194,-0.151,3.426
-0.015,0.715,-0.119,0.121,-0.131,3.368
0.004,0.730,-0.116,0.050,-0.104,3.305
0.022,0.745,-0.116,-0.020,-0.073,3.234
0.038,0.759,-0.113,-0.090,-0.040,3.159
0.051,0.770,-0.108,-0.159,-0.010,3.077
0.061,0.779,-0.099,-0.226,0.020,2.990
0.068,0.785,-0.090,-0.292,0.047,2.903
0.076,0.790,-0.081,-0.354,0.069,2.813
0.081,0.796,-0.073,-0.414,0.086,2.720
0.086,0.800,-0.067,-0.470,0.099,2.627
0.090,0.806,-0.061,-0.523,0.110,2.533
0.093,0.812,-0.052,-0.569,0.117,2.441
0.093,0.819,-0.043,-0.611,0.121,2.349
0.092,0.825,-0.035,-0.648,0.123,2.258
0.090,0.832,-0.027,-0.680,0.122,2.169
0.088,0.838,-0.020,-0.707,0.121,2.082
0.087,0.844,-0.013,-0.728,0.123,1.995
0.084,0.850,-0.005,-0.744,0.129,1.913
0.085,0.855,0.002,-0.755,0.137,1.836
0.085,0.861,0.010,-0.763,0.149,1.764

-1.595,0.592,-0.002,-1.595,-0.863,-9.896
-1.764,0.683,-0.005,-1.785,-0.898,-9.625
-1.930,0.769,-0.008,-1.955,-0.897,-9.269
-2.080,0.858,-0.010,-2.099,-0.859,-8.832
-2.207,0.948,-0.005,-2.210,-0.767,-8.311
-2.336,1.033,0.003,-2.285,-0.618,-7.716
-2.451,1.122,0.024,-2.320,-0.442,-7.056
-2.554,1.210,0.059,-2.318,-0.255,-6.341
-2.637,1.285,0.106,-2.284,-0.078,-5.582
-2.703,1.333,0.163,-2.221,0.082,-4.794
-2.767,1.348,0.233,-2.137,0.212,-4.003
-2.810,1.341,0.310,-2.027,0.269,-3.222
-2.829,1.321,0.386,-1.894,0.263,-2.466
-2.816,1.290,0.455,-1.744,0.216,-1.750
-2.774,1.250,0.517,-1.577,0.149,-1.079
-2.710,1.208,0.567,-1.395,0.082,-0.460
-2.626,1.161,0.607,-1.200,0.026,0.107
-2.171,0.945,0.698,-0.254,-0.011,2.026
-2.060,0.896,0.704,-0.026,0.012,2.373
-1.949,0.853,0.703,0.200,0.030,2.689
-1.844,0.812,0.696,0.421,0.039,2.977
-1.741,0.772,0.682,0.637,0.040,3.235
-1.643,0.731,0.666,0.844,0.033,3.466
-1.548,0.693,0.648,1.042,0.018,3.673
-1.460,0.658,0.625,1.227,-0.009,3.856
-1.374,0.628,0.601,1.397,-0.045,4.017
-1.294,0.601,0.578,1.552,-0.093,4.157
-1.219,0.580,0.551,1.688,-0.148,4.277
-1.145,0.564,0.525,1.808,-0.210,4.376
-1.075,0.550,0.491,1.911,-0.276,4.456
-1.007,0.540,0.455,1.999,-0.343,4.517
-0.943,0.532,0.420,2.070,-0.407,4.560
-0.883,0.526,0.384,2.128,-0.464,4.589
-0.826,0.522,0.347,2.174,-0.515,4.603
-0.775,0.522,0.310,2.207,-0.558,4.605
-0.726,0.523,0.271,2.228,-0.594,4.597
-0.680,0.524,0.234,2.241,-0.619,4.579
-0.638,0.527,0.196,2.244,-0.632,4.553
-0.599,0.531,0.161,2.236,-0.633,4.517
-0.565,0.538,0.122,2.219,-0.622,4.472
-0.530,0.547,0.090,2.190,-0.595,4.423
-0.399,0.579,-0.046,1.950,-0.418,4.211
-0.370,0.585,-0.074,1.873,-0.360,4.166
-0.343,0.592,-0.099,1.790,-0.295,4.123
-0.315,0.601,-0.120,1.701,-0.226,4.079
-0.287,0.607,-0.140,1.605,-0.152,4.037
-0.262,0.611,-0.154,1.506,-0.076,3.995
-0.237,0.614,-0.169,1.403,0.001,3.956
-0.211,0.615,-0.184,1.296,0.078,3.915
-0.189,0.615,-0.195,1.186,0.152,3.877
-0.167,0.616,-0.201,1.071,0.225,3.840
-0.146,0.618,-0.205,0.954,0.293,3.800
-0.125,0.621,-0.208,0.835,0.355,3.760
-0.104,0.626,-0.208,0.717,0.411,3.717
-0.083,0.635,-0.203,0.597,0.460,3.672
-0.064,0.644,-0.195,0.478,0.504,3.622
-0.045,0.654,-0.189,0.359,0.544,3.569
-0.025,0.662,-0.181,0.241,0.577,3.515
-0.007,0.671,-0.170,0.127,0.606,3.457
0.010,0.680,-0.161,0.015,0.630,3.394
0.025,0.691,-0.149,-0.094,0.650,3.327
0.038,0.705,-0.137,-0.198,0.663,3.255
0.050,0.718,-0.123,-0.299,0.668,3.181
0.070,0.771,-0.052,-0.690,0.580,2.828
0.073,0.780,-0.036,-0.767,0.542,2.745
0.076,0.790,-0.020,-0.838,0.498,2.664
0.081,0.802,-0.005,-0.902,0.454,2.585
0.088,0.815,0.007,-0.959,0.413,2.509
0.096,0.826,0.018,-1.008,0.380,2.437
0.107,0.835,0.027,-1.048,0.358,2.368
0.118,0.845,0.036,-1.081,0.350,2.301
0.129,0.853,0.047,-1.105,0.360,2.236
0.139,0.861,0.057,-1.121,0.385,2.171
0.148,0.868,0.067,-1.129,0.422,2.108
0.155,0.874,0.080,-1.129,0.470,2.047
0.159,0.881,0.092,-1.123,0.525,1.985
0.163,0.885,0.109,-1.112,0.582,1.925
0.163,0.889,0.123,-1.096,0.634,1.868
0.161,0.892,0.139,-1.077,0.679,1.811
0.157,0.893,0.153,-1.051,0.717,1.753

-1.615,0.658,-0.056,-0.409,-2.017,-8.994
-1.764,0.735,-0.080,-0.635,-2.183,-8.748
-1.900,0.811,-0.102,-0.851,-2.316,-8.449
-2.027,0.887,-0.123,-1.053,-2.403,-8.096
-2.141,0.963,-0.140,-1.233,-2.439,-7.689
-2.238,1.038,-0.152,-1.390,-2.419,-7.226
-2.327,1.104,-0.157,-1.517,-2.340,-6.709
-2.400,1.165,-0.153,-1.609,-2.210,-6.145
-2.467,1.216,-0.142,-1.668,-2.026,-5.537
-2.526,1.262,-0.118,-1.689,-1.811,-4.897
-2.569,1.294,-0.083,-1.675,-1.576,-4.228
-2.612,1.305,-0.037,-1.630,-1.330,-3.547
-2.652,1.303,0.015,-1.555,-1.105,-2.866
-2.663,1.291,0.071,-1.454,-0.913,-2.192
-2.656,1.266,0.129,-1.332,-0.745,-1.535
-2.420,1.088,0.341,-0.649,-0.198,0.961
-2.334,1.036,0.378,-0.477,-0.104,1.437
-2.244,0.983,0.410,-0.303,-0.024,1.872
-2.149,0.930,0.441,-0.131,0.036,2.270
-2.052,0.879,0.466,0.037,0.073,2.633
-1.952,0.828,0.486,0.201,0.087,2.962
-1.853,0.781,0.498,0.361,0.079,3.260
-1.750,0.736,0.504,0.513,0.048,3.528
-1.647,0.697,0.506,0.660,0.000,3.767
-1.545,0.661,0.503,0.797,-0.060,3.979
-1.447,0.631,0.495,0.926,-0.128,4.164
-1.353,0.609,0.484,1.044,-0.199,4.324
-1.265,0.591,0.470,1.151,-0.274,4.459
-1.183,0.576,0.452,1.246,-0.351,4.570
-1.107,0.566,0.433,1.329,-0.428,4.656
-1.038,0.557,0.415,1.401,-0.502,4.718
-0.976,0.550,0.393,1.460,-0.576,4.758
-0.922,0.544,0.370,1.509,-0.646,4.779
-0.872,0.541,0.345,1.550,-0.712,4.780
-0.825,0.538,0.322,1.583,-0.770,4.766
-0.782,0.535,0.298,1.606,-0.832,4.742
-0.743,0.534,0.270,1.623,-0.895,4.712
-0.704,0.532,0.241,1.637,-0.951,4.675
-0.539,0.546,0.099,1.645,-1.062,4.484
-0.502,0.553,0.066,1.634,-1.044,4.437
-0.467,0.560,0.033,1.618,-1.009,4.391
-0.432,0.567,0.003,1.595,-0.956,4.349
-0.398,0.574,-0.027,1.568,-0.885,4.309
-0.367,0.582,-0.054,1.534,-0.800,4.272
-0.337,0.590,-0.079,1.494,-0.702,4.236
-0.309,0.600,-0.101,1.448,-0.598,4.200
-0.284,0.607,-0.122,1.397,-0.484,4.168
-0.260,0.614,-0.139,1.340,-0.363,4.135
-0.239,0.619,-0.150,1.277,-0.237,4.103
-0.218,0.626,-0.160,1.209,-0.113,4.072
-0.198,0.629,-0.167,1.134,0.007,4.042
-0.179,0.631,-0.172,1.056,0.122,4.012
-0.162,0.635,-0.172,0.971,0.228,3.983
-0.143,0.640,-0.173,0.882,0.321,3.954
-0.125,0.645,-0.170,0.789,0.400,3.924
-0.107,0.651,-0.166,0.690,0.465,3.893
-0.089,0.660,-0.159,0.590,0.517,3.860
-0.071,0.670,-0.154,0.486,0.558,3.823
-0.053,0.680,-0.145,0.382,0.586,3.782
0.013,0.715,-0.101,-0.067,0.581,3.561
0.026,0.719,-0.093,-0.166,0.552,3.500
0.039,0.723,-0.083,-0.260,0.515,3.435
0.050,0.727,-0.076,-0.350,0.468,3.368
0.063,0.732,-0.068,-0.434,0.415,3.299
0.078,0.738,-0.059,-0.513,0.358,3.228
0.095,0.744,-0.053,-0.586,0.300,3.156
0.112,0.752,-0.046,-0.654,0.245,3.083
0.129,0.760,-0.039,-0.718,0.196,3.009
0.146,0.769,-0.034,-0.776,0.155,2.932
0.166,0.778,-0.033,-0.827,0.129,2.852
0.185,0.785,-0.030,-0.872,0.116,2.769
0.202,0.794,-0.027,-0.909,0.120,2.684
0.216,0.805,-0.022,-0.940,0.137,2.595
0.229,0.816,-0.019,-0.963,0.168,2.503
0.240,0.827,-0.016,-0.981,0.210,2.406
0.248,0.836,-0.008,-0.993,0.262,2.308
0.255,0.842,0.001,-1.000,0.321,2.208
0.261,0.846,0.010,-1.000,0.386,2.110
0.266,0.850,0.019,-0.996,0.454,2.014
0.271,0.853,0.029,-0.988,0.523,1.919

-1.187,0.733,0.150,-0.529,-0.921,-5.995
-1.277,0.774,0.149,-0.528,-0.950,-5.821
-1.366,0.820,0.145,-0.526,-0.972,-5.623
-1.447,0.869,0.140,-0.523,-0.982,-5.403
-1.518,0.920,0.136,-0.520,-0.983,-5.156
-1.586,0.964,0.133,-0.517,-0.968,-4.884
-1.648,1.005,0.132,-0.514,-0.942,-4.589
-1.691,1.040,0.134,-0.510,-0.904,-4.269
-1.745,1.074,0.137,-0.503,-0.854,-3.929
-1.784,1.109,0.146,-0.494,-0.810,-3.572
-1.806,1.137,0.156,-0.482,-0.759,-3.198
-1.845,1.155,0.167,-0.465,-0.694,-2.816
-1.871,1.172,0.181,-0.441,-0.645,-2.432
-1.889,1.182,0.196,-0.410,-0.598,-2.043
-1.899,1.186,0.211,-0.372,-0.553,-1.655
-1.903,1.182,0.227,-0.326,-0.511,-1.269
-1.898,1.172,0.240,-0.270,-0.466,-0.889
-1.796,1.092,0.294,0.045,-0.253,0.631
-1.757,1.073,0.302,0.126,-0.204,0.946
-1.714,1.050,0.308,0.204,-0.161,1.247
-1.667,1.030,0.313,0.281,-0.123,1.534
-1.616,1.010,0.322,0.355,-0.094,1.804
-1.564,0.989,0.328,0.426,-0.072,2.061
-1.511,0.967,0.336,0.492,-0.061,2.303
-1.458,0.945,0.342,0.552,-0.062,2.532
-1.405,0.922,0.348,0.609,-0.076,2.746
-1.355,0.899,0.355,0.661,-0.102,2.947
-1.305,0.878,0.359,0.706,-0.142,3.134
-1.256,0.857,0.364,0.747,-0.190,3.310
-1.211,0.837,0.367,0.782,-0.250,3.473
-1.169,0.815,0.369,0.815,-0.321,3.625
-1.127,0.792,0.367,0.844,-0.404,3.767
-1.086,0.769,0.363,0.872,-0.498,3.903
-1.044,0.750,0.357,0.897,-0.598,4.032
-0.999,0.733,0.349,0.922,-0.698,4.157
-0.951,0.717,0.337,0.945,-0.796,4.275
-0.900,0.703,0.322,0.968,-0.888,4.388
-0.847,0.690,0.302,0.992,-0.970,4.493
-0.791,0.676,0.278,1.015,-1.040,4.593
-0.734,0.660,0.255,1.038,-1.094,4.685
-0.471,0.619,0.143,1.104,-1.141,4.977
-0.411,0.615,0.117,1.105,-1.099,5.013
-0.350,0.616,0.095,1.100,-1.031,5.034
-0.287,0.618,0.072,1.090,-0.941,5.043
-0.230,0.618,0.049,1.074,-0.839,5.042
-0.180,0.616,0.032,1.051,-0.733,5.030
-0.134,0.617,0.020,1.023,-0.626,5.001
-0.089,0.620,0.010,0.985,-0.519,4.958
-0.043,0.628,0.001,0.940,-0.411,4.900
-0.002,0.636,-0.008,0.889,-0.299,4.828
0.038,0.644,-0.014,0.831,-0.180,4.745
0.071,0.650,-0.019,0.768,-0.061,4.654
0.099,0.654,-0.020,0.702,0.052,4.554
0.122,0.654,-0.020,0.632,0.154,4.447
0.145,0.655,-0.018,0.559,0.241,4.338
0.166,0.656,-0.016,0.483,0.314,4.226
0.187,0.658,-0.013,0.409,0.375,4.110
0.207,0.660,-0.013,0.336,0.427,3.993
0.225,0.664,-0.009,0.266,0.471,3.873
0.241,0.669,-0.006,0.199,0.508,3.751
0.256,0.677,0.001,0.136,0.534,3.628
0.266,0.682,0.006,0.095,0.546,3.546
0.279,0.689,0.011,0.037,0.556,3.423
0.291,0.697,0.015,-0.017,0.558,3.299
0.302,0.706,0.021,-0.068,0.553,3.176
0.314,0.714,0.028,-0.114,0.544,3.053
0.366,0.770,0.055,-0.281,0.499,2.505
0.376,0.783,0.059,-0.303,0.500,2.392
0.384,0.795,0.067,-0.320,0.506,2.281
0.390,0.805,0.074,-0.332,0.516,2.171
0.393,0.811,0.079,-0.337,0.525,2.099
0.394,0.818,0.087,-0.343,0.537,1.992
0.392,0.825,0.097,-0.344,0.549,1.888
0.392,0.831,0.106,-0.341,0.557,1.789
0.388,0.837,0.116,-0.334,0.558,1.689
0.385,0.840,0.125,-0.325,0.558,1.594
0.385,0.845,0.131,-0.312,0.556,1.504
0.385,0.849,0.138,-0.298,0.556,1.416
0.385,0.854,0.143,-0.281,0.556,1.335
0.382,0.860,0.149,-0.263,0.553,1.256

0.901,0.784,0.227,0.476,0.223,-1.617
0.916,0.755,0.234,0.503,0.233,-1.845
0.924,0.721,0.242,0.527,0.233,-2.087
0.927,0.690,0.250,0.547,0.221,-2.337
0.930,0.665,0.256,0.564,0.201,-2.591
0.933,0.654,0.259,0.574,0.185,-2.762
0.933,0.641,0.264,0.585,0.161,-3.017
0.930,0.631,0.267,0.594,0.139,-3.271
0.920,0.621,0.268,0.600,0.126,-3.520
0.904,0.609,0.268,0.604,0.116,-3.763
0.885,0.597,0.273,0.606,0.110,-3.999
0.862,0.587,0.279,0.606,0.102,-4.226
0.837,0.575,0.286,0.606,0.090,-4.441
0.812,0.563,0.292,0.603,0.069,-4.646
0.784,0.546,0.300,0.601,0.038,-4.841
0.756,0.527,0.307,0.600,-0.004,-5.030
0.723,0.505,0.313,0.601,-0.057,-5.214
0.689,0.479,0.318,0.603,-0.117,-5.391
0.648,0.454,0.322,0.607,-0.178,-5.565
0.598,0.432,0.326,0.610,-0.241,-5.734
0.539,0.413,0.330,0.615,-0.302,-5.902
0.470,0.395,0.331,0.620,-0.366,-6.067
0.393,0.382,0.331,0.627,-0.434,-6.226
0.312,0.374,0.326,0.633,-0.507,-6.376
0.227,0.372,0.316,0.643,-0.578,-6.513
0.139,0.377,0.304,0.654,-0.644,-6.635
-0.273,0.428,0.211,0.746,-0.856,-6.910
-0.368,0.446,0.186,0.772,-0.896,-6.905
-0.464,0.467,0.162,0.793,-0.950,-6.869
-0.569,0.493,0.142,0.808,-1.028,-6.808
-0.674,0.522,0.122,0.812,-1.099,-6.734
-0.779,0.554,0.100,0.802,-1.146,-6.650
-0.885,0.594,0.077,0.775,-1.174,-6.553
-0.993,0.642,0.057,0.729,-1.190,-6.443
-1.099,0.692,0.033,0.662,-1.199,-6.316
-1.204,0.743,0.010,0.580,-1.203,-6.174
-1.308,0.791,-0.012,0.483,-1.200,-6.012
-1.408,0.838,-0.032,0.376,-1.195,-5.828
-1.528,0.901,-0.056,0.219,-1.182,-5.542
-1.608,0.946,-0.069,0.099,-1.171,-5.295
-1.680,0.985,-0.080,-0.022,-1.151,-5.016
-1.747,1.020,-0.086,-0.142,-1.128,-4.707
-1.807,1.051,-0.086,-0.254,-1.101,-4.371
-1.860,1.079,-0.084,-0.362,-1.067,-4.010
-1.996,1.159,-0.031,-0.691,-0.869,-2.268
-2.001,1.166,-0.012,-0.728,-0.806,-1.847
-1.996,1.166,0.011,-0.750,-0.733,-1.430
-1.982,1.159,0.036,-0.756,-0.651,-1.017
-1.961,1.146,0.061,-0.743,-0.562,-0.614
-1.932,1.127,0.087,-0.713,-0.467,-0.222
-1.895,1.102,0.117,-0.666,-0.370,0.154
-1.852,1.075,0.149,-0.606,-0.275,0.515
-1.803,1.043,0.178,-0.531,-0.184,0.857
-1.750,1.010,0.207,-0.446,-0.104,1.182
-1.693,0.973,0.232,-0.352,-0.036,1.490
-1.627,0.937,0.256,-0.251,0.020,1.779
-1.559,0.900,0.276,-0.148,0.065,2.051
-1.487,0.866,0.292,-0.043,0.098,2.304
-1.412,0.835,0.304,0.063,0.119,2.535
-1.338,0.809,0.314,0.165,0.128,2.744
-1.263,0.786,0.320,0.264,0.123,2.931
-1.188,0.764,0.321,0.355,0.112,3.096
-1.112,0.748,0.318,0.442,0.093,3.237
-1.040,0.733,0.314,0.521,0.072,3.357
-0.783,0.693,0.278,0.775,-0.031,3.642
-0.734,0.689,0.267,0.812,-0.064,3.663
-0.691,0.686,0.257,0.842,-0.098,3.672
-0.651,0.685,0.246,0.867,-0.135,3.669
-0.615,0.685,0.232,0.888,-0.173,3.660
-0.581,0.687,0.219,0.902,-0.211,3.644
-0.548,0.688,0.203,0.913,-0.244,3.625
-0.515,0.691,0.185,0.919,-0.269,3.601
-0.485,0.695,0.166,0.923,-0.287,3.578
-0.456,0.701,0.145,0.919,-0.296,3.555
-0.428,0.708,0.125,0.911,-0.295,3.532
-0.404,0.715,0.107,0.897,-0.285,3.513
-0.381,0.722,0.089,0.877,-0.264,3.496
-0.358,0.729,0.074,0.850,-0.233,3.482
-0.338,0.733,0.057,0.818,-0.192,3.469
-0.317,0.737,0.043,0.780,-0.143,3.459

-1.238,0.484,0.309,0.525,-0.302,-8.695
-1.377,0.542,0.263,0.579,-0.414,-8.537
-1.513,0.613,0.218,0.606,-0.519,-8.333
-1.646,0.696,0.171,0.601,-0.625,-8.079
-1.770,0.787,0.123,0.565,-0.720,-7.776
-1.886,0.884,0.073,0.492,-0.797,-7.424
-1.991,0.983,0.026,0.385,-0.845,-7.021
-2.086,1.077,-0.014,0.250,-0.861,-6.566
-2.171,1.161,-0.045,0.095,-0.844,-6.064
-2.242,1.234,-0.068,-0.073,-0.800,-5.518
