aX,aY,aZ,gX,gY,gZ
-0.269,0.887,0.855,0.483,-0.039,-0.009
-0.321,0.895,0.875,0.512,-0.074,0.134
-0.375,0.906,0.893,0.551,-0.146,0.298
-0.420,0.915,0.909,0.602,-0.243,0.477
-0.459,0.922,0.922,0.662,-0.355,0.670
-0.495,0.928,0.929,0.733,-0.468,0.876
-0.527,0.929,0.932,0.814,-0.566,1.089
-0.555,0.926,0.930,0.900,-0.641,1.308
-0.575,0.921,0.929,0.991,-0.699,1.536
-0.594,0.917,0.928,1.080,-0.750,1.771
-0.610,0.914,0.927,1.163,-0.806,2.010
-0.624,0.911,0.927,1.240,-0.868,2.253
-0.635,0.904,0.921,1.308,-0.937,2.496
-0.641,0.892,0.910,1.370,-1.009,2.736
-0.641,0.877,0.897,1.426,-1.083,2.978
-0.634,0.859,0.879,1.477,-1.162,3.217
-0.617,0.839,0.856,1.525,-1.240,3.454
-0.592,0.816,0.827,1.571,-1.315,3.689
-0.555,0.789,0.794,1.614,-1.379,3.918
-0.322,0.598,0.653,1.762,-1.587,4.811
-0.248,0.562,0.620,1.782,-1.607,4.968
-0.163,0.533,0.585,1.794,-1.614,5.099
-0.076,0.505,0.553,1.800,-1.608,5.203
0.010,0.477,0.523,1.801,-1.585,5.281
0.089,0.453,0.497,1.795,-1.543,5.335
0.159,0.433,0.474,1.783,-1.488,5.364
0.218,0.416,0.454,1.762,-1.425,5.367
0.275,0.401,0.434,1.733,-1.362,5.347
0.332,0.395,0.415,1.697,-1.302,5.304
0.387,0.386,0.394,1.655,-1.238,5.248
0.437,0.379,0.372,1.612,-1.172,5.179
0.490,0.374,0.351,1.567,-1.101,5.101
0.540,0.366,0.328,1.521,-1.023,5.014
0.589,0.358,0.307,1.474,-0.940,4.921
0.636,0.353,0.290,1.424,-0.855,4.823
0.683,0.350,0.274,1.374,-0.763,4.717
0.729,0.345,0.258,1.324,-0.664,4.604
0.769,0.333,0.243,1.274,-0.562,4.485
0.812,0.320,0.233,1.225,-0.460,4.361
0.856,0.312,0.228,1.176,-0.355,4.235
0.900,0.297,0.222,1.129,-0.254,4.105
0.940,0.284,0.221,1.084,-0.161,3.973
0.981,0.278,0.225,1.040,-0.080,3.835
1.023,0.274,0.229,0.994,-0.006,3.691
1.066,0.272,0.232,0.947,0.059,3.536
1.108,0.269,0.241,0.898,0.114,3.371
1.146,0.268,0.252,0.848,0.165,3.199
1.267,0.240,0.311,0.607,0.271,2.342
1.296,0.235,0.324,0.546,0.274,2.122
1.315,0.237,0.341,0.481,0.271,1.900
1.334,0.225,0.353,0.414,0.264,1.669
1.356,0.229,0.371,0.351,0.255,1.437
1.369,0.234,0.388,0.284,0.241,1.211
1.379,0.236,0.398,0.219,0.225,0.992
1.387,0.240,0.410,0.156,0.211,0.777
1.395,0.242,0.421,0.098,0.200,0.566
1.403,0.247,0.430,0.047,0.192,0.360
1.410,0.247,0.436,0.002,0.181,0.160
1.418,0.247,0.438,-0.033,0.169,-0.034
1.426,0.247,0.437,-0.060,0.154,-0.218
1.438,0.245,0.430,-0.076,0.143,-0.396
1.453,0.242,0.421,-0.084,0.139,-0.567
1.468,0.240,0.412,-0.085,0.149,-0.734
1.481,0.237,0.400,-0.081,0.172,-0.899
1.494,0.238,0.389,-0.072,0.210,-1.064
1.500,0.239,0.383,-0.066,0.242,-1.175
1.505,0.240,0.377,-0.057,0.303,-1.343
1.502,0.238,0.372,-0.052,0.376,-1.511
1.489,0.233,0.373,-0.051,0.454,-1.681
1.471,0.229,0.381,-0.055,0.536,-1.854
1.447,0.224,0.394,-0.064,0.614,-2.025
1.416,0.222,0.408,-0.077,0.684,-2.200
1.381,0.221,0.418,-0.093,0.745,-2.374
1.343,0.219,0.434,-0.111,0.795,-2.548
1.125,0.236,0.495,-0.189,0.893,-3.277
1.077,0.250,0.505,-0.202,0.888,-3.402
1.029,0.262,0.516,-0.215,0.875,-3.514
0.986,0.272,0.527,-0.225,0.860,-3.611
0.946,0.287,0.537,-0.234,0.846,-3.693
0.918,0.299,0.544,-0.238,0.838,-3.741

-0.353,1.011,0.750,0.259,0.435,0.176
-0.429,1.045,0.776,0.315,0.440,0.292
-0.509,1.076,0.799,0.382,0.438,0.435
-0.593,1.106,0.824,0.457,0.424,0.610
-0.672,1.131,0.846,0.538,0.394,0.816
-0.742,1.151,0.867,0.624,0.348,1.055
-0.805,1.169,0.884,0.710,0.276,1.321
-0.863,1.182,0.889,0.795,0.181,1.606
-0.912,1.187,0.888,0.879,0.087,1.904
-0.959,1.185,0.885,0.960,0.005,2.208
-0.990,1.173,0.884,1.038,-0.082,2.515
-1.019,1.166,0.880,1.107,-0.172,2.831
-1.040,1.159,0.873,1.149,-0.226,3.049
-1.076,1.144,0.860,1.209,-0.300,3.384
-1.103,1.113,0.845,1.265,-0.380,3.726
-1.118,1.070,0.827,1.319,-0.466,4.079
-1.119,1.021,0.802,1.366,-0.551,4.444
-1.106,0.963,0.771,1.412,-0.628,4.816
-1.081,0.899,0.737,1.456,-0.703,5.187
-1.027,0.833,0.702,1.496,-0.783,5.549
-0.944,0.763,0.662,1.529,-0.868,5.898
-0.847,0.689,0.622,1.554,-0.958,6.226
-0.736,0.607,0.580,1.565,-1.047,6.522
-0.611,0.534,0.535,1.561,-1.130,6.780
-0.472,0.483,0.490,1.542,-1.205,6.992
0.129,0.243,0.298,1.394,-1.342,7.373
0.241,0.205,0.266,1.357,-1.372,7.345
0.348,0.192,0.235,1.319,-1.394,7.284
0.415,0.194,0.213,1.292,-1.396,7.223
0.504,0.211,0.182,1.249,-1.383,7.102
0.585,0.219,0.150,1.205,-1.348,6.945
0.659,0.215,0.122,1.159,-1.292,6.764
0.728,0.208,0.093,1.114,-1.220,6.566
0.791,0.203,0.066,1.070,-1.121,6.354
0.854,0.202,0.039,1.027,-0.991,6.131
0.918,0.204,0.016,0.985,-0.829,5.900
0.975,0.207,-0.002,0.946,-0.633,5.663
1.028,0.210,-0.015,0.910,-0.404,5.422
1.079,0.214,-0.022,0.874,-0.147,5.179
1.124,0.214,-0.024,0.839,0.136,4.932
1.165,0.207,-0.019,0.806,0.437,4.683
1.209,0.206,-0.007,0.774,0.748,4.434
1.251,0.222,0.014,0.743,1.055,4.186
1.286,0.244,0.044,0.713,1.338,3.936
1.311,0.262,0.079,0.682,1.579,3.682
1.328,0.269,0.123,0.647,1.767,3.426
1.339,0.268,0.175,0.607,1.888,3.170
1.349,0.267,0.229,0.561,1.926,2.916
1.360,0.273,0.280,0.510,1.886,2.659
1.372,0.282,0.324,0.452,1.787,2.397
1.388,0.292,0.360,0.394,1.651,2.123
1.401,0.299,0.389,0.335,1.492,1.839
1.413,0.304,0.411,0.277,1.318,1.546
1.426,0.311,0.427,0.219,1.129,1.247
1.438,0.320,0.435,0.164,0.934,0.947
1.487,0.359,0.375,-0.066,0.147,-0.285
1.494,0.363,0.347,-0.116,0.021,-0.543
1.502,0.384,0.323,-0.168,-0.074,-0.791
1.501,0.377,0.295,-0.229,-0.150,-1.029
1.503,0.371,0.267,-0.289,-0.199,-1.264
1.500,0.383,0.249,-0.354,-0.226,-1.490
1.488,0.390,0.232,-0.429,-0.235,-1.701
1.466,0.388,0.220,-0.509,-0.230,-1.900
1.440,0.381,0.211,-0.595,-0.213,-2.090
1.408,0.373,0.209,-0.686,-0.190,-2.275
1.373,0.362,0.213,-0.782,-0.166,-2.454
1.332,0.355,0.219,-0.880,-0.143,-2.628
1.287,0.349,0.229,-0.981,-0.122,-2.793
1.239,0.340,0.243,-1.082,-0.110,-2.949
1.189,0.330,0.259,-1.183,-0.100,-3.099
1.142,0.319,0.276,-1.282,-0.095,-3.241
1.096,0.311,0.298,-1.377,-0.089,-3.375
1.049,0.307,0.323,-1.465,-0.084,-3.496
1.001,0.307,0.346,-1.547,-0.077,-3.605
0.958,0.311,0.368,-1.622,-0.066,-3.699
0.786,0.343,0.464,-1.811,0.083,-3.959
0.745,0.352,0.485,-1.822,0.139,-3.989
0.704,0.365,0.507,-1.819,0.200,-4.009
0.666,0.381,0.528,-1.803,0.261,-4.021
0.629,0.399,0.546,-1.776,0.319,-4.023

-0.363,0.921,0.731,0.111,0.218,0.150
-0.406,0.939,0.750,0.134,0.226,0.190
-0.477,0.969,0.782,0.177,0.230,0.267
-0.551,1.002,0.813,0.226,0.220,0.367
-0.626,1.037,0.844,0.282,0.194,0.496
-0.706,1.072,0.872,0.344,0.139,0.651
-0.781,1.103,0.893,0.412,0.054,0.838
-0.840,1.127,0.911,0.484,-0.060,1.054
-0.889,1.150,0.923,0.557,-0.201,1.298
-0.927,1.162,0.926,0.630,-0.352,1.564
-0.957,1.169,0.923,0.700,-0.510,1.843
-0.991,1.178,0.917,0.766,-0.654,2.124
-1.033,1.177,0.906,0.829,-0.763,2.399
-1.069,1.160,0.892,0.890,-0.846,2.664
-1.089,1.123,0.880,0.948,-0.914,2.932
-1.095,1.080,0.868,1.003,-0.978,3.220
-1.102,1.050,0.852,1.053,-1.040,3.530
-1.106,1.026,0.828,1.100,-1.098,3.851
-1.105,1.008,0.803,1.148,-1.154,4.177
-1.096,0.983,0.777,1.194,-1.202,4.491
-1.060,0.936,0.754,1.240,-1.238,4.792
-1.017,0.880,0.727,1.283,-1.262,5.090
-0.972,0.821,0.694,1.325,-1.277,5.379
-0.920,0.761,0.663,1.363,-1.282,5.649
-0.633,0.523,0.539,1.490,-1.229,6.543
-0.558,0.473,0.511,1.510,-1.196,6.676
-0.487,0.418,0.485,1.525,-1.159,6.781
-0.413,0.359,0.456,1.536,-1.120,6.861
-0.335,0.303,0.424,1.541,-1.074,6.919
-0.250,0.249,0.390,1.542,-1.023,6.955
-0.156,0.201,0.352,1.537,-0.959,6.972
-0.054,0.165,0.309,1.526,-0.878,6.969
0.054,0.144,0.270,1.510,-0.778,6.941
0.172,0.146,0.233,1.488,-0.659,6.890
0.281,0.151,0.205,1.461,-0.519,6.817
0.376,0.147,0.175,1.428,-0.367,6.720
0.463,0.128,0.162,1.388,-0.205,6.596
0.548,0.110,0.151,1.337,-0.046,6.450
0.637,0.110,0.144,1.273,0.098,6.283
0.725,0.116,0.138,1.199,0.238,6.097
0.808,0.135,0.135,1.122,0.372,5.892
0.880,0.154,0.136,1.039,0.495,5.669
0.940,0.172,0.141,0.954,0.597,5.430
0.996,0.190,0.149,0.864,0.674,5.176
1.043,0.206,0.164,0.774,0.725,4.912
1.086,0.221,0.176,0.682,0.757,4.640
1.122,0.231,0.191,0.591,0.767,4.364
1.153,0.237,0.208,0.500,0.747,4.084
1.182,0.248,0.223,0.409,0.703,3.801
1.210,0.264,0.236,0.319,0.648,3.516
1.235,0.278,0.246,0.230,0.589,3.230
1.254,0.288,0.258,0.143,0.524,2.947
1.269,0.299,0.269,0.059,0.454,2.668
1.285,0.310,0.279,-0.023,0.386,2.395
1.324,0.367,0.317,-0.334,0.112,1.309
1.327,0.378,0.326,-0.397,0.052,1.086
1.330,0.387,0.333,-0.457,-0.007,0.872
1.333,0.392,0.339,-0.511,-0.065,0.665
1.343,0.408,0.342,-0.560,-0.117,0.463
1.344,0.416,0.347,-0.612,-0.164,0.270
1.361,0.402,0.342,-0.659,-0.197,0.077
1.382,0.407,0.341,-0.696,-0.202,-0.113
1.397,0.410,0.339,-0.731,-0.180,-0.293
1.411,0.406,0.334,-0.760,-0.125,-0.464
1.426,0.397,0.329,-0.780,-0.028,-0.635
1.440,0.390,0.332,-0.791,0.105,-0.810
1.452,0.379,0.338,-0.795,0.264,-0.990
1.457,0.366,0.346,-0.791,0.441,-1.178
1.451,0.352,0.359,-0.780,0.624,-1.371
1.439,0.335,0.374,-0.763,0.805,-1.572
1.422,0.318,0.390,-0.742,0.982,-1.783
1.402,0.300,0.409,-0.714,1.158,-2.004
1.377,0.282,0.427,-0.682,1.329,-2.233
1.348,0.267,0.446,-0.646,1.493,-2.470
1.314,0.254,0.465,-0.606,1.644,-2.708
1.272,0.241,0.483,-0.564,1.780,-2.946
1.226,0.233,0.502,-0.520,1.895,-3.180
0.993,0.271,0.587,-0.355,2.101,-4.111
0.936,0.285,0.600,-0.329,2.086,-4.299
0.878,0.296,0.611,-0.310,2.053,-4.474

-0.368,0.930,0.733,-0.250,-0.302,-2.998
-0.377,0.954,0.733,-0.211,-0.311,-2.856
-0.385,0.973,0.730,-0.167,-0.302,-2.712
-0.397,0.987,0.732,-0.123,-0.285,-2.562
-0.413,0.999,0.739,-0.079,-0.274,-2.403
-0.429,1.008,0.743,-0.035,-0.268,-2.236
-0.443,1.011,0.748,0.005,-0.277,-2.061
-0.452,1.013,0.756,0.042,-0.308,-1.882
-0.456,1.012,0.756,0.077,-0.351,-1.701
-0.456,1.011,0.754,0.109,-0.397,-1.522
-0.450,1.011,0.751,0.140,-0.441,-1.352
-0.437,1.009,0.745,0.172,-0.480,-1.188
-0.422,1.005,0.733,0.204,-0.512,-1.033
-0.406,0.995,0.723,0.235,-0.535,-0.889
-0.390,0.981,0.714,0.263,-0.553,-0.752
-0.372,0.965,0.705,0.287,-0.568,-0.627
-0.356,0.949,0.693,0.309,-0.582,-0.511
-0.339,0.935,0.685,0.325,-0.598,-0.404
-0.320,0.920,0.675,0.336,-0.616,-0.311
-0.235,0.864,0.623,0.346,-0.686,-0.015
-0.212,0.855,0.610,0.343,-0.699,0.031
-0.189,0.843,0.598,0.339,-0.703,0.070
-0.168,0.828,0.586,0.334,-0.697,0.105
-0.149,0.813,0.577,0.330,-0.680,0.135
-0.131,0.799,0.567,0.325,-0.657,0.161
-0.113,0.786,0.559,0.318,-0.630,0.181
-0.094,0.775,0.551,0.310,-0.599,0.194
-0.077,0.765,0.546,0.300,-0.566,0.201
-0.061,0.758,0.539,0.289,-0.533,0.200
-0.045,0.753,0.535,0.278,-0.498,0.193
-0.032,0.747,0.530,0.266,-0.464,0.179
-0.020,0.740,0.526,0.254,-0.429,0.159
-0.011,0.733,0.523,0.242,-0.393,0.134
-0.002,0.727,0.519,0.228,-0.358,0.105
0.006,0.722,0.516,0.215,-0.322,0.073
0.013,0.718,0.513,0.200,-0.287,0.038
0.018,0.718,0.512,0.185,-0.253,0.002
0.022,0.719,0.512,0.170,-0.219,-0.035
0.024,0.721,0.512,0.152,-0.187,-0.074
0.024,0.724,0.513,0.133,-0.159,-0.113
0.019,0.728,0.515,0.114,-0.135,-0.151
0.016,0.733,0.518,0.095,-0.116,-0.186
-0.009,0.755,0.533,0.019,-0.064,-0.300
-0.015,0.759,0.538,0.004,-0.054,-0.316
-0.021,0.765,0.545,-0.010,-0.040,-0.329
-0.028,0.772,0.549,-0.021,-0.026,-0.339
-0.037,0.777,0.556,-0.031,-0.011,-0.348
-0.048,0.782,0.564,-0.038,0.003,-0.355
-0.056,0.786,0.571,-0.045,0.014,-0.360
-0.066,0.791,0.579,-0.049,0.021,-0.361
-0.076,0.796,0.586,-0.050,0.026,-0.361
-0.085,0.802,0.592,-0.050,0.027,-0.357
-0.093,0.806,0.598,-0.048,0.026,-0.349
-0.100,0.811,0.602,-0.045,0.023,-0.338
-0.106,0.815,0.607,-0.039,0.019,-0.324
-0.109,0.819,0.612,-0.032,0.015,-0.306
-0.114,0.822,0.616,-0.024,0.010,-0.286
-0.116,0.826,0.619,-0.016,0.004,-0.265
-0.115,0.828,0.622,-0.006,0.001,-0.241
-0.116,0.828,0.625,0.002,-0.003,-0.216
-0.115,0.829,0.628,0.009,-0.007,-0.190
-0.098,0.829,0.629,0.038,-0.042,-0.090
-0.092,0.826,0.628,0.047,-0.048,-0.070
-0.088,0.822,0.626,0.057,-0.054,-0.052
-0.083,0.818,0.625,0.067,-0.061,-0.035
-0.077,0.815,0.623,0.077,-0.065,-0.020
-0.072,0.811,0.621,0.086,-0.070,-0.007
-0.068,0.808,0.617,0.096,-0.073,0.002
-0.064,0.804,0.616,0.104,-0.078,0.011
-0.060,0.801,0.613,0.112,-0.080,0.016
-0.057,0.799,0.610,0.118,-0.081,0.020
-0.053,0.797,0.605,0.122,-0.082,0.021
-0.050,0.793,0.603,0.126,-0.080,0.021
-0.048,0.789,0.599,0.129,-0.077,0.019
-0.048,0.789,0.598,0.130,-0.073,0.017
-0.045,0.789,0.593,0.132,-0.072,0.015
-0.044,0.789,0.589,0.132,-0.070,0.012
-0.042,0.788,0.588,0.132,-0.066,0.009
-0.042,0.786,0.585,0.131,-0.063,0.004
-0.043,0.788,0.584,0.132,-0.061,0.002

-0.338,0.977,0.650,0.256,0.244,0.052
-0.390,1.006,0.666,0.291,0.267,0.134
-0.449,1.035,0.681,0.329,0.282,0.232
-0.510,1.066,0.698,0.369,0.284,0.348
-0.570,1.084,0.713,0.413,0.269,0.484
-0.633,1.099,0.732,0.455,0.217,0.645
-0.697,1.121,0.747,0.499,0.140,0.822
-0.754,1.154,0.752,0.544,0.076,1.011
-0.810,1.184,0.754,0.595,0.029,1.220
-0.868,1.207,0.755,0.653,-0.007,1.446
-0.930,1.229,0.756,0.714,-0.036,1.689
-1.000,1.249,0.761,0.775,-0.054,1.946
-1.050,1.245,0.767,0.833,-0.068,2.224
-1.096,1.236,0.774,0.885,-0.103,2.532
-1.142,1.233,0.778,0.928,-0.147,2.864
-1.176,1.229,0.773,0.965,-0.183,3.216
-1.205,1.218,0.767,1.001,-0.203,3.592
-1.224,1.182,0.758,1.039,-0.212,3.995
-1.241,1.138,0.751,1.077,-0.233,4.423
-1.244,1.086,0.744,1.114,-0.263,4.866
-1.230,1.019,0.736,1.149,-0.304,5.316
-1.201,0.942,0.727,1.182,-0.367,5.767
-1.157,0.859,0.717,1.210,-0.455,6.208
-1.094,0.771,0.703,1.232,-0.561,6.629
-1.016,0.680,0.686,1.249,-0.676,7.022
-0.580,0.256,0.585,1.237,-1.230,8.301
-0.467,0.164,0.552,1.221,-1.357,8.491
-0.349,0.082,0.518,1.202,-1.473,8.643
-0.231,0.018,0.481,1.181,-1.572,8.754
-0.108,-0.025,0.445,1.158,-1.650,8.830
0.022,-0.057,0.404,1.133,-1.693,8.877
0.145,-0.091,0.362,1.105,-1.708,8.903
0.255,-0.118,0.331,1.075,-1.714,8.910
0.363,-0.137,0.306,1.040,-1.725,8.895
0.476,-0.138,0.281,1.000,-1.738,8.850
0.595,-0.130,0.251,0.963,-1.734,8.778
0.717,-0.116,0.218,0.929,-1.699,8.676
0.833,-0.100,0.187,0.900,-1.626,8.544
0.939,-0.082,0.156,0.880,-1.524,8.380
1.038,-0.065,0.134,0.868,-1.389,8.184
1.127,-0.054,0.117,0.866,-1.230,7.961
1.204,-0.058,0.107,0.871,-1.058,7.718
1.269,-0.069,0.097,0.880,-0.886,7.460
1.327,-0.056,0.093,0.897,-0.713,7.186
1.383,-0.030,0.094,0.912,-0.533,6.888
1.435,-0.005,0.102,0.917,-0.359,6.562
1.480,0.019,0.108,0.911,-0.198,6.209
1.523,0.039,0.115,0.895,-0.062,5.833
1.649,0.111,0.169,0.730,0.259,3.997
1.665,0.127,0.180,0.668,0.269,3.536
1.673,0.142,0.190,0.601,0.258,3.067
1.676,0.155,0.198,0.529,0.230,2.595
1.678,0.169,0.206,0.453,0.192,2.121
1.673,0.184,0.212,0.377,0.148,1.654
1.664,0.202,0.219,0.297,0.098,1.196
1.650,0.222,0.227,0.214,0.043,0.756
1.635,0.243,0.230,0.129,-0.020,0.335
1.616,0.263,0.233,0.039,-0.087,-0.060
1.594,0.284,0.234,-0.051,-0.158,-0.427
1.576,0.306,0.234,-0.144,-0.230,-0.765
1.562,0.327,0.231,-0.235,-0.300,-1.076
1.554,0.346,0.228,-0.324,-0.365,-1.360
1.547,0.361,0.221,-0.410,-0.422,-1.621
1.540,0.373,0.214,-0.491,-0.467,-1.860
1.530,0.381,0.203,-0.565,-0.497,-2.084
1.517,0.386,0.192,-0.635,-0.511,-2.294
1.502,0.385,0.182,-0.701,-0.507,-2.496
1.478,0.380,0.173,-0.762,-0.484,-2.691
1.449,0.367,0.166,-0.819,-0.444,-2.882
1.414,0.350,0.168,-0.872,-0.387,-3.071
1.375,0.343,0.167,-0.921,-0.316,-3.261
1.316,0.333,0.174,-0.976,-0.239,-3.443
1.063,0.282,0.234,-1.230,0.065,-4.213
0.999,0.279,0.249,-1.289,0.134,-4.362
0.934,0.276,0.266,-1.345,0.204,-4.501
0.874,0.271,0.283,-1.397,0.275,-4.630
0.817,0.273,0.305,-1.444,0.349,-4.749
0.761,0.274,0.326,-1.487,0.428,-4.855
0.705,0.277,0.348,-1.526,0.508,-4.951
0.649,0.282,0.371,-1.563,0.585,-5.036

-0.299,1.020,0.669,0.348,0.288,0.195
-0.348,1.040,0.688,0.391,0.293,0.297
-0.401,1.059,0.706,0.441,0.296,0.416
-0.457,1.077,0.726,0.497,0.298,0.552
-0.514,1.088,0.746,0.561,0.293,0.709
-0.576,1.099,0.772,0.629,0.263,0.885
-0.642,1.117,0.794,0.702,0.215,1.077
-0.707,1.137,0.814,0.781,0.169,1.279
-0.769,1.158,0.834,0.867,0.139,1.493
-0.825,1.166,0.848,0.960,0.123,1.723
-0.872,1.166,0.865,1.059,0.106,1.982
-0.914,1.160,0.876,1.161,0.081,2.274
-0.951,1.154,0.879,1.269,0.045,2.603
-0.981,1.147,0.875,1.376,0.001,2.961
-1.001,1.132,0.869,1.482,-0.048,3.340
-1.012,1.110,0.863,1.587,-0.102,3.728
-1.016,1.090,0.858,1.653,-0.136,3.987
-1.020,1.053,0.851,1.745,-0.181,4.372
-1.018,1.009,0.843,1.830,-0.219,4.751
-1.014,0.960,0.836,1.905,-0.265,5.118
-1.005,0.906,0.828,1.970,-0.326,5.474
-0.987,0.847,0.819,2.025,-0.402,5.818
-0.962,0.785,0.808,2.074,-0.496,6.144
-0.933,0.723,0.791,2.116,-0.602,6.451
-0.894,0.665,0.768,2.154,-0.714,6.739
-0.842,0.606,0.736,2.189,-0.828,7.007
-0.472,0.302,0.517,2.333,-1.330,8.022
-0.362,0.235,0.456,2.356,-1.410,8.176
-0.241,0.166,0.392,2.375,-1.471,8.305
-0.107,0.107,0.326,2.384,-1.509,8.406
0.044,0.064,0.260,2.383,-1.520,8.479
0.196,0.036,0.194,2.367,-1.501,8.523
0.296,0.030,0.152,2.350,-1.470,8.536
0.444,0.028,0.094,2.311,-1.396,8.533
0.581,0.017,0.039,2.259,-1.289,8.504
0.706,-0.002,-0.005,2.194,-1.172,8.448
0.828,-0.021,-0.038,2.115,-1.065,8.359
0.949,-0.031,-0.062,2.022,-0.961,8.234
1.063,-0.051,-0.085,1.923,-0.857,8.066
1.177,-0.060,-0.096,1.825,-0.749,7.858
1.286,-0.050,-0.111,1.729,-0.623,7.604
1.385,-0.028,-0.125,1.638,-0.475,7.301
1.473,-0.013,-0.129,1.550,-0.310,6.948
1.545,-0.011,-0.127,1.459,-0.142,6.552
1.610,-0.018,-0.117,1.368,0.019,6.124
1.663,-0.027,-0.104,1.271,0.165,5.666
1.711,-0.028,-0.087,1.169,0.286,5.186
1.753,-0.028,-0.071,1.062,0.381,4.689
1.876,0.046,0.017,0.573,0.517,2.268
1.884,0.070,0.036,0.476,0.506,1.756
1.885,0.093,0.055,0.381,0.484,1.261
1.880,0.108,0.067,0.319,0.463,0.943
1.868,0.129,0.081,0.230,0.425,0.486
1.849,0.149,0.093,0.143,0.376,0.059
1.826,0.170,0.101,0.061,0.319,-0.338
1.802,0.192,0.104,-0.016,0.262,-0.706
1.778,0.214,0.106,-0.087,0.208,-1.042
1.754,0.234,0.105,-0.152,0.162,-1.352
1.729,0.252,0.102,-0.212,0.127,-1.634
1.701,0.268,0.099,-0.267,0.100,-1.893
1.673,0.282,0.096,-0.319,0.084,-2.132
1.643,0.293,0.094,-0.368,0.081,-2.350
1.610,0.301,0.093,-0.415,0.093,-2.552
1.572,0.307,0.093,-0.459,0.118,-2.739
1.530,0.307,0.093,-0.500,0.160,-2.914
1.485,0.308,0.100,-0.541,0.218,-3.078
1.435,0.307,0.109,-0.581,0.292,-3.234
1.381,0.304,0.124,-0.622,0.378,-3.382
1.325,0.301,0.142,-0.662,0.471,-3.523
1.262,0.298,0.163,-0.705,0.570,-3.657
1.197,0.296,0.186,-0.747,0.669,-3.784
1.132,0.297,0.215,-0.792,0.761,-3.906
1.066,0.302,0.245,-0.835,0.844,-4.020
1.003,0.312,0.277,-0.879,0.915,-4.127
0.752,0.394,0.404,-1.080,1.064,-4.469
0.698,0.393,0.424,-1.122,1.064,-4.517
0.652,0.414,0.452,-1.153,1.058,-4.556
0.608,0.443,0.478,-1.179,1.037,-4.576
0.566,0.471,0.501,-1.199,1.005,-4.574
0.526,0.497,0.523,-1.212,0.966,-4.555

-0.447,1.074,0.447,0.368,0.331,0.271
-0.495,1.092,0.462,0.422,0.336,0.342
-0.548,1.118,0.472,0.482,0.337,0.413
-0.600,1.149,0.480,0.547,0.336,0.488
-0.650,1.176,0.487,0.619,0.341,0.576
-0.705,1.200,0.491,0.699,0.354,0.684
-0.767,1.222,0.488,0.790,0.377,0.822
-0.837,1.243,0.486,0.885,0.408,0.992
-0.909,1.267,0.478,0.984,0.444,1.195
-0.977,1.291,0.469,1.084,0.478,1.434
-1.043,1.311,0.453,1.180,0.507,1.707
-1.100,1.320,0.436,1.270,0.534,2.015
-1.152,1.326,0.415,1.347,0.565,2.359
-1.194,1.332,0.390,1.409,0.603,2.735
-1.231,1.325,0.366,1.454,0.646,3.139
-1.254,1.300,0.341,1.479,0.685,3.566
-1.264,1.257,0.319,1.484,0.716,4.014
-1.254,1.199,0.303,1.469,0.730,4.474
-1.225,1.137,0.293,1.435,0.726,4.936
-1.180,1.071,0.280,1.387,0.701,5.387
-1.121,0.999,0.273,1.325,0.651,5.816
-1.048,0.920,0.268,1.254,0.577,6.212
-0.962,0.837,0.270,1.176,0.479,6.571
-0.866,0.751,0.269,1.093,0.359,6.889
-0.796,0.693,0.268,1.037,0.269,7.077
-0.687,0.608,0.266,0.954,0.119,7.325
-0.573,0.526,0.263,0.875,-0.046,7.530
-0.458,0.453,0.254,0.802,-0.221,7.694
0.059,0.266,0.167,0.563,-1.042,7.944
0.156,0.256,0.136,0.530,-1.173,7.903
0.251,0.252,0.107,0.502,-1.266,7.837
0.337,0.236,0.075,0.482,-1.322,7.755
0.407,0.206,0.044,0.466,-1.361,7.663
0.479,0.177,0.015,0.452,-1.394,7.560
0.562,0.164,-0.015,0.440,-1.407,7.444
0.656,0.169,-0.044,0.429,-1.375,7.308
0.760,0.184,-0.073,0.415,-1.295,7.153
0.859,0.206,-0.098,0.397,-1.170,6.973
0.950,0.223,-0.119,0.374,-1.003,6.773
1.029,0.231,-0.134,0.348,-0.806,6.550
1.078,0.230,-0.141,0.331,-0.663,6.392
1.143,0.226,-0.140,0.306,-0.437,6.138
1.198,0.223,-0.131,0.280,-0.205,5.864
1.245,0.226,-0.112,0.247,0.022,5.565
1.292,0.235,-0.092,0.210,0.236,5.239
1.336,0.239,-0.066,0.171,0.429,4.892
1.372,0.241,-0.038,0.135,0.594,4.527
1.403,0.246,-0.007,0.105,0.730,4.146
1.430,0.259,0.026,0.078,0.835,3.751
1.453,0.281,0.057,0.055,0.914,3.345
1.470,0.304,0.088,0.037,0.970,2.932
1.477,0.326,0.119,0.024,1.003,2.518
1.476,0.345,0.146,0.017,1.007,2.114
1.471,0.360,0.172,0.014,0.985,1.724
1.462,0.372,0.193,0.015,0.940,1.361
1.449,0.388,0.208,0.020,0.872,1.025
1.409,0.510,0.221,0.063,0.413,-0.151
1.398,0.531,0.211,0.069,0.311,-0.368
1.387,0.546,0.195,0.073,0.214,-0.569
1.378,0.560,0.179,0.072,0.127,-0.755
1.370,0.573,0.162,0.067,0.050,-0.927
1.361,0.586,0.146,0.053,-0.014,-1.090
1.352,0.597,0.131,0.032,-0.067,-1.244
1.343,0.603,0.119,0.000,-0.107,-1.392
1.336,0.606,0.108,-0.039,-0.138,-1.536
1.328,0.609,0.099,-0.087,-0.160,-1.677
1.317,0.607,0.092,-0.145,-0.172,-1.818
1.303,0.600,0.085,-0.208,-0.178,-1.958
1.285,0.585,0.085,-0.278,-0.178,-2.103
1.266,0.568,0.079,-0.345,-0.170,-2.254
1.242,0.559,0.079,-0.416,-0.156,-2.410
1.219,0.572,0.090,-0.487,-0.133,-2.568
1.179,0.551,0.092,-0.570,-0.111,-2.725
1.141,0.518,0.100,-0.648,-0.087,-2.890
1.103,0.508,0.106,-0.720,-0.061,-3.056
1.060,0.507,0.115,-0.790,-0.033,-3.213
1.012,0.498,0.119,-0.850,-0.005,-3.362
0.810,0.488,0.191,-1.048,0.215,-3.903
0.760,0.492,0.213,-1.087,0.274,-4.009
0.713,0.501,0.235,-1.123,0.325,-4.109

-0.496,1.180,0.398,0.272,0.603,-0.243
-0.574,1.220,0.418,0.328,0.665,-0.140
-0.661,1.257,0.440,0.391,0.722,-0.012
-0.755,1.287,0.461,0.462,0.760,0.146
-0.855,1.312,0.485,0.540,0.763,0.336
-0.956,1.343,0.505,0.622,0.733,0.553
-1.054,1.377,0.517,0.708,0.696,0.796
-1.150,1.415,0.530,0.797,0.672,1.062
-1.242,1.454,0.539,0.889,0.666,1.352
-1.321,1.489,0.548,0.983,0.678,1.680
-1.391,1.513,0.554,1.080,0.699,2.059
-1.463,1.528,0.561,1.175,0.714,2.498
-1.533,1.529,0.565,1.265,0.709,2.992
-1.588,1.516,0.565,1.347,0.677,3.535
-1.621,1.483,0.566,1.419,0.619,4.119
-1.633,1.428,0.562,1.477,0.535,4.727
-1.624,1.351,0.554,1.525,0.438,5.341
-1.596,1.248,0.547,1.567,0.343,5.944
-1.549,1.128,0.540,1.606,0.252,6.521
-1.484,0.988,0.536,1.644,0.162,7.062
-1.401,0.837,0.535,1.678,0.055,7.567
-1.300,0.684,0.532,1.711,-0.081,8.027
-1.182,0.536,0.530,1.742,-0.262,8.445
-1.044,0.398,0.519,1.770,-0.486,8.816
-0.941,0.310,0.506,1.787,-0.656,9.036
-0.779,0.190,0.477,1.811,-0.927,9.323
0.060,-0.071,0.236,1.900,-2.086,9.930
0.211,-0.091,0.170,1.915,-2.219,9.928
0.334,-0.116,0.108,1.924,-2.321,9.891
0.440,-0.144,0.049,1.926,-2.417,9.820
0.549,-0.152,-0.002,1.915,-2.507,9.710
0.670,-0.138,-0.057,1.888,-2.583,9.558
0.799,-0.113,-0.113,1.850,-2.620,9.368
0.921,-0.086,-0.168,1.805,-2.611,9.143
1.028,-0.066,-0.223,1.755,-2.551,8.883
1.120,-0.059,-0.271,1.700,-2.434,8.590
1.195,-0.064,-0.311,1.638,-2.269,8.269
1.265,-0.075,-0.339,1.574,-2.074,7.925
1.337,-0.073,-0.362,1.504,-1.829,7.559
1.410,-0.062,-0.380,1.422,-1.542,7.169
1.481,-0.046,-0.397,1.330,-1.230,6.756
1.552,-0.024,-0.408,1.231,-0.893,6.325
1.619,-0.000,-0.414,1.127,-0.535,5.870
1.677,0.022,-0.409,1.021,-0.168,5.396
1.728,0.044,-0.396,0.911,0.194,4.902
1.765,0.066,-0.373,0.799,0.544,4.393
1.790,0.086,-0.342,0.685,0.865,3.871
1.766,0.177,-0.145,0.235,1.608,1.603
1.739,0.204,-0.099,0.151,1.606,1.116
1.710,0.237,-0.059,0.073,1.548,0.657
1.679,0.275,-0.029,0.003,1.445,0.225
1.648,0.313,-0.004,-0.060,1.310,-0.175
1.616,0.350,0.011,-0.117,1.157,-0.543
1.583,0.386,0.019,-0.168,0.995,-0.877
1.548,0.416,0.022,-0.212,0.833,-1.177
1.513,0.443,0.017,-0.251,0.678,-1.446
1.477,0.469,0.007,-0.289,0.534,-1.687
1.442,0.493,-0.008,-0.326,0.408,-1.900
1.406,0.516,-0.025,-0.364,0.300,-2.090
1.372,0.536,-0.043,-0.403,0.211,-2.259
1.337,0.552,-0.058,-0.445,0.142,-2.410
1.302,0.566,-0.070,-0.490,0.092,-2.546
1.263,0.576,-0.082,-0.536,0.056,-2.668
1.222,0.582,-0.090,-0.589,0.035,-2.779
1.180,0.587,-0.096,-0.645,0.024,-2.881
1.137,0.589,-0.098,-0.706,0.021,-2.976
1.094,0.587,-0.097,-0.769,0.026,-3.063
1.053,0.585,-0.092,-0.838,0.036,-3.146
0.881,0.582,-0.033,-1.178,0.098,-3.452
0.845,0.588,-0.017,-1.259,0.109,-3.516
0.804,0.580,0.000,-1.344,0.114,-3.572
0.769,0.588,0.025,-1.421,0.125,-3.622
0.729,0.587,0.047,-1.499,0.134,-3.669
0.694,0.569,0.066,-1.574,0.147,-3.722
0.666,0.566,0.086,-1.641,0.163,-3.776
0.638,0.574,0.107,-1.702,0.181,-3.823
0.608,0.577,0.125,-1.758,0.200,-3.861
0.579,0.580,0.145,-1.805,0.225,-3.891
0.549,0.588,0.168,-1.851,0.252,-3.912
0.519,0.590,0.188,-1.893,0.278,-3.926

-0.456,1.190,0.336,0.381,0.468,0.301
-0.542,1.222,0.352,0.430,0.499,0.417
-0.649,1.251,0.368,0.479,0.511,0.547
-0.741,1.272,0.386,0.528,0.493,0.697
-0.830,1.286,0.399,0.576,0.452,0.880
-0.912,1.306,0.410,0.624,0.394,1.103
-0.979,1.324,0.415,0.668,0.328,1.368
-1.041,1.343,0.412,0.709,0.267,1.681
-1.095,1.364,0.406,0.744,0.223,2.040
-1.137,1.382,0.400,0.774,0.214,2.440
-1.166,1.390,0.398,0.799,0.229,2.881
-1.186,1.384,0.401,0.821,0.253,3.358
-1.201,1.355,0.409,0.838,0.267,3.861
-1.211,1.300,0.425,0.849,0.245,4.375
-1.202,1.232,0.441,0.859,0.173,4.881
-1.167,1.150,0.451,0.871,0.077,5.366
-1.113,1.062,0.458,0.890,-0.036,5.820
-1.043,0.969,0.461,0.917,-0.159,6.241
-0.961,0.872,0.460,0.956,-0.289,6.618
-0.868,0.772,0.455,0.998,-0.429,6.954
-0.763,0.675,0.446,1.043,-0.578,7.246
-0.645,0.581,0.432,1.086,-0.726,7.499
-0.527,0.498,0.415,1.124,-0.868,7.712
-0.407,0.422,0.387,1.160,-1.000,7.885
-0.290,0.353,0.353,1.195,-1.116,8.018
-0.175,0.286,0.316,1.227,-1.214,8.112
0.341,0.097,0.139,1.302,-1.372,8.101
0.469,0.094,0.099,1.291,-1.328,8.009
0.598,0.104,0.062,1.269,-1.254,7.891
0.714,0.117,0.031,1.232,-1.166,7.751
0.816,0.129,0.004,1.182,-1.084,7.589
0.912,0.142,-0.020,1.124,-1.011,7.406
1.002,0.161,-0.044,1.059,-0.939,7.198
1.084,0.177,-0.062,0.995,-0.861,6.966
1.157,0.186,-0.078,0.931,-0.778,6.708
1.221,0.189,-0.090,0.868,-0.698,6.427
1.282,0.194,-0.099,0.808,-0.619,6.124
1.341,0.204,-0.106,0.750,-0.536,5.800
1.396,0.219,-0.111,0.695,-0.452,5.457
1.445,0.235,-0.110,0.643,-0.369,5.097
1.484,0.249,-0.107,0.591,-0.292,4.722
1.512,0.256,-0.103,0.538,-0.226,4.335
1.533,0.261,-0.095,0.484,-0.171,3.939
1.548,0.274,-0.086,0.428,-0.129,3.536
1.555,0.295,-0.074,0.367,-0.094,3.129
1.557,0.317,-0.065,0.301,-0.068,2.721
1.552,0.338,-0.057,0.232,-0.054,2.317
1.542,0.354,-0.049,0.161,-0.047,1.923
1.525,0.370,-0.045,0.089,-0.044,1.542
1.507,0.389,-0.037,0.015,-0.046,1.178
1.446,0.490,-0.029,-0.321,-0.090,-0.169
1.431,0.507,-0.032,-0.397,-0.100,-0.426
1.413,0.521,-0.034,-0.468,-0.110,-0.662
1.394,0.534,-0.038,-0.535,-0.117,-0.882
1.375,0.548,-0.041,-0.600,-0.122,-1.089
1.357,0.563,-0.041,-0.663,-0.129,-1.283
1.341,0.572,-0.040,-0.724,-0.129,-1.469
1.322,0.579,-0.037,-0.784,-0.122,-1.645
1.302,0.581,-0.032,-0.843,-0.112,-1.813
1.280,0.580,-0.026,-0.900,-0.097,-1.974
1.255,0.578,-0.016,-0.959,-0.079,-2.128
1.225,0.574,-0.004,-1.016,-0.061,-2.276
1.194,0.567,0.014,-1.073,-0.044,-2.421
1.160,0.562,0.033,-1.128,-0.028,-2.561
1.127,0.551,0.052,-1.184,-0.015,-2.695
1.092,0.543,0.073,-1.238,-0.003,-2.824
1.058,0.534,0.095,-1.290,0.004,-2.949
0.921,0.532,0.178,-1.469,0.022,-3.447
0.885,0.537,0.197,-1.499,0.034,-3.551
0.850,0.524,0.213,-1.527,0.049,-3.659
0.819,0.518,0.226,-1.544,0.068,-3.766
0.785,0.520,0.240,-1.554,0.090,-3.865
0.746,0.520,0.254,-1.558,0.114,-3.954
0.709,0.523,0.265,-1.557,0.140,-4.029
0.670,0.536,0.279,-1.552,0.170,-4.095
0.632,0.548,0.293,-1.545,0.197,-4.150
0.599,0.556,0.302,-1.536,0.226,-4.199
0.566,0.568,0.312,-1.521,0.256,-4.245
0.534,0.581,0.325,-1.504,0.289,-4.286
0.504,0.593,0.335,-1.484,0.322,-4.319

-0.493,1.153,0.379,0.391,0.547,1.028
-0.561,1.182,0.389,0.416,0.571,1.186
-0.636,1.211,0.400,0.443,0.594,1.362
-0.717,1.240,0.410,0.471,0.617,1.547
-0.774,1.256,0.420,0.509,0.644,1.751
-0.824,1.263,0.431,0.551,0.679,1.989
-0.888,1.267,0.439,0.598,0.720,2.266
-0.963,1.271,0.451,0.645,0.756,2.575
-1.028,1.276,0.463,0.689,0.770,2.916
-1.077,1.274,0.472,0.731,0.759,3.287
-1.111,1.258,0.478,0.770,0.725,3.690
-1.131,1.225,0.482,0.810,0.675,4.117
-1.137,1.176,0.480,0.847,0.616,4.562
-1.135,1.137,0.476,0.871,0.571,4.864
-1.120,1.069,0.469,0.906,0.499,5.310
-1.086,0.997,0.461,0.938,0.424,5.745
-1.035,0.919,0.449,0.968,0.350,6.160
-0.970,0.836,0.434,0.997,0.283,6.550
-0.895,0.749,0.422,1.021,0.226,6.910
-0.809,0.656,0.411,1.038,0.176,7.237
-0.719,0.564,0.400,1.048,0.132,7.533
-0.624,0.480,0.388,1.051,0.088,7.795
-0.525,0.402,0.375,1.050,0.040,8.021
-0.422,0.332,0.355,1.047,-0.015,8.210
-0.316,0.271,0.335,1.048,-0.068,8.362
-0.205,0.224,0.308,1.055,-0.110,8.473
-0.088,0.184,0.276,1.072,-0.130,8.546
0.437,0.044,0.169,1.198,0.107,8.508
0.564,0.043,0.152,1.213,0.228,8.444
0.689,0.054,0.139,1.217,0.343,8.365
0.810,0.082,0.131,1.210,0.437,8.265
0.929,0.119,0.129,1.189,0.510,8.139
1.045,0.157,0.125,1.157,0.560,7.985
1.157,0.188,0.123,1.120,0.600,7.798
1.257,0.201,0.123,1.081,0.640,7.580
1.342,0.214,0.122,1.041,0.670,7.334
1.417,0.225,0.122,0.999,0.687,7.056
1.477,0.214,0.123,0.965,0.683,6.755
1.532,0.209,0.129,0.940,0.662,6.430
1.580,0.210,0.140,0.914,0.634,6.081
1.623,0.221,0.144,0.884,0.598,5.705
1.653,0.223,0.150,0.856,0.552,5.309
1.669,0.217,0.154,0.819,0.498,4.892
1.680,0.206,0.157,0.772,0.432,4.456
1.690,0.200,0.153,0.716,0.357,4.005
1.697,0.193,0.148,0.662,0.284,3.546
1.686,0.180,0.147,0.606,0.226,3.081
1.669,0.167,0.148,0.540,0.173,2.613
1.655,0.160,0.152,0.463,0.121,2.142
1.641,0.158,0.152,0.377,0.069,1.680
1.630,0.164,0.152,0.283,0.017,1.230
1.620,0.176,0.151,0.184,-0.037,0.796
1.608,0.192,0.151,0.080,-0.093,0.381
1.600,0.202,0.152,0.007,-0.128,0.118
1.587,0.222,0.153,-0.102,-0.180,-0.253
1.572,0.245,0.151,-0.213,-0.232,-0.598
1.559,0.271,0.148,-0.322,-0.281,-0.915
1.543,0.294,0.144,-0.428,-0.326,-1.206
1.524,0.317,0.142,-0.531,-0.362,-1.473
1.436,0.402,0.142,-0.933,-0.468,-2.439
1.415,0.412,0.143,-0.997,-0.475,-2.596
1.391,0.420,0.144,-1.050,-0.477,-2.736
1.365,0.427,0.146,-1.094,-0.475,-2.866
1.340,0.434,0.150,-1.129,-0.468,-2.983
1.312,0.437,0.155,-1.158,-0.459,-3.091
1.280,0.429,0.157,-1.176,-0.444,-3.188
1.248,0.432,0.162,-1.184,-0.422,-3.283
1.215,0.424,0.168,-1.194,-0.402,-3.368
1.184,0.440,0.186,-1.195,-0.372,-3.446
1.140,0.438,0.193,-1.204,-0.344,-3.517
1.101,0.423,0.197,-1.208,-0.317,-3.598
1.071,0.426,0.204,-1.207,-0.291,-3.682
1.035,0.433,0.214,-1.207,-0.262,-3.763
0.997,0.433,0.225,-1.207,-0.231,-3.839
0.958,0.434,0.236,-1.206,-0.193,-3.910
0.914,0.444,0.250,-1.207,-0.148,-3.976
0.868,0.448,0.263,-1.212,-0.107,-4.040
0.823,0.446,0.275,-1.219,-0.067,-4.106
0.639,0.477,0.347,-1.247,0.086,-4.387
0.598,0.493,0.365,-1.254,0.110,-4.439

-0.401,1.144,0.446,0.345,0.320,0.481
-0.471,1.163,0.460,0.400,0.351,0.601
-0.547,1.179,0.475,0.460,0.364,0.744
-0.629,1.199,0.490,0.523,0.352,0.906
-0.710,1.228,0.500,0.587,0.336,1.084
-0.786,1.262,0.507,0.658,0.338,1.281
-0.863,1.301,0.515,0.734,0.363,1.505
-0.944,1.336,0.523,0.812,0.401,1.760
-1.033,1.355,0.531,0.891,0.438,2.055
-1.130,1.358,0.540,0.964,0.454,2.390
-1.212,1.341,0.551,1.029,0.436,2.757
-1.259,1.313,0.557,1.088,0.386,3.172
-1.296,1.282,0.556,1.138,0.319,3.638
-1.324,1.244,0.548,1.180,0.250,4.139
-1.333,1.189,0.538,1.220,0.192,4.661
-1.325,1.106,0.527,1.258,0.138,5.194
-1.303,1.011,0.518,1.293,0.077,5.724
-1.259,0.915,0.510,1.323,0.000,6.235
-1.189,0.823,0.500,1.347,-0.094,6.714
-1.100,0.727,0.490,1.366,-0.203,7.152
-0.992,0.627,0.480,1.380,-0.325,7.539
-0.876,0.527,0.466,1.389,-0.452,7.875
-0.756,0.436,0.448,1.393,-0.589,8.155
-0.628,0.356,0.427,1.394,-0.733,8.380
-0.492,0.285,0.397,1.396,-0.879,8.549
-0.353,0.228,0.365,1.403,-1.010,8.666
0.233,0.138,0.192,1.495,-1.108,8.629
0.343,0.136,0.156,1.515,-1.086,8.533
0.444,0.137,0.120,1.530,-1.058,8.408
0.540,0.139,0.082,1.541,-1.010,8.256
0.639,0.140,0.045,1.546,-0.934,8.082
0.739,0.139,0.014,1.543,-0.825,7.888
0.838,0.148,-0.015,1.530,-0.697,7.676
0.938,0.160,-0.041,1.508,-0.556,7.444
1.035,0.174,-0.061,1.476,-0.404,7.193
1.130,0.191,-0.078,1.440,-0.249,6.921
1.214,0.202,-0.087,1.402,-0.085,6.627
1.285,0.201,-0.088,1.361,0.079,6.314
1.354,0.204,-0.081,1.318,0.239,5.981
1.417,0.213,-0.067,1.265,0.394,5.628
1.476,0.222,-0.054,1.209,0.531,5.256
1.523,0.226,-0.037,1.150,0.648,4.868
1.556,0.228,-0.016,1.088,0.739,4.467
1.580,0.230,0.009,1.022,0.802,4.058
1.595,0.231,0.030,0.951,0.841,3.645
1.601,0.235,0.051,0.878,0.850,3.231
1.601,0.242,0.067,0.806,0.832,2.821
1.596,0.250,0.080,0.735,0.793,2.420
1.593,0.255,0.088,0.692,0.757,2.160
1.590,0.265,0.097,0.628,0.692,1.784
1.585,0.280,0.104,0.566,0.613,1.425
1.583,0.300,0.109,0.502,0.525,1.086
1.579,0.322,0.112,0.437,0.430,0.764
1.574,0.343,0.112,0.368,0.336,0.460
1.567,0.360,0.109,0.296,0.247,0.175
1.556,0.372,0.100,0.219,0.163,-0.094
1.496,0.430,0.058,-0.129,-0.105,-1.089
1.483,0.441,0.049,-0.212,-0.140,-1.289
1.469,0.451,0.043,-0.295,-0.164,-1.480
1.449,0.456,0.038,-0.377,-0.178,-1.661
1.429,0.458,0.036,-0.459,-0.183,-1.835
1.408,0.461,0.035,-0.540,-0.181,-2.001
1.383,0.462,0.037,-0.618,-0.173,-2.159
1.357,0.465,0.041,-0.699,-0.163,-2.310
1.330,0.465,0.047,-0.779,-0.154,-2.456
1.302,0.465,0.055,-0.859,-0.145,-2.597
1.274,0.457,0.060,-0.935,-0.139,-2.733
1.251,0.463,0.073,-1.009,-0.131,-2.867
1.226,0.449,0.075,-1.083,-0.129,-2.992
1.204,0.457,0.090,-1.150,-0.115,-3.108
1.176,0.441,0.097,-1.221,-0.105,-3.220
1.155,0.419,0.102,-1.280,-0.094,-3.342
1.136,0.415,0.110,-1.330,-0.077,-3.464
1.113,0.414,0.117,-1.375,-0.057,-3.580
1.087,0.408,0.126,-1.414,-0.037,-3.692
0.920,0.386,0.169,-1.534,0.117,-4.183
0.880,0.386,0.181,-1.552,0.159,-4.295
0.836,0.386,0.192,-1.568,0.200,-4.406
0.790,0.390,0.201,-1.583,0.241,-4.516
0.742,0.400,0.215,-1.598,0.279,-4.621

-0.469,1.152,0.501,0.158,0.372,0.137
-0.560,1.198,0.522,0.204,0.419,0.259
-0.658,1.242,0.547,0.256,0.464,0.410
-0.759,1.274,0.575,0.315,0.503,0.596
-0.866,1.296,0.605,0.378,0.525,0.822
-0.974,1.325,0.631,0.447,0.525,1.081
-1.067,1.359,0.653,0.524,0.519,1.376
-1.147,1.402,0.678,0.611,0.529,1.704
-1.228,1.441,0.700,0.709,0.552,2.069
-1.313,1.466,0.719,0.816,0.571,2.471
-1.400,1.465,0.739,0.931,0.577,2.915
-1.481,1.438,0.758,1.048,0.568,3.400
-1.542,1.391,0.770,1.166,0.537,3.926
-1.581,1.329,0.778,1.281,0.484,4.489
-1.594,1.261,0.784,1.390,0.408,5.072
-1.582,1.180,0.785,1.495,0.325,5.661
-1.548,1.080,0.782,1.596,0.239,6.241
-1.496,0.971,0.778,1.699,0.151,6.798
-1.421,0.853,0.769,1.803,0.055,7.323
-1.361,0.773,0.763,1.873,-0.012,7.653
-1.258,0.650,0.749,1.979,-0.118,8.112
-1.142,0.532,0.730,2.087,-0.234,8.523
-1.010,0.411,0.700,2.200,-0.352,8.884
-0.866,0.288,0.666,2.316,-0.467,9.194
-0.712,0.175,0.622,2.431,-0.568,9.451
-0.551,0.066,0.569,2.545,-0.644,9.653
0.181,-0.201,0.316,2.877,-0.693,9.924
0.327,-0.189,0.260,2.885,-0.651,9.866
0.461,-0.169,0.202,2.873,-0.581,9.781
0.584,-0.151,0.148,2.848,-0.498,9.672
0.693,-0.129,0.099,2.804,-0.422,9.537
0.798,-0.096,0.056,2.743,-0.364,9.372
0.898,-0.052,0.021,2.666,-0.320,9.171
1.001,-0.003,-0.010,2.579,-0.277,8.934
1.107,0.043,-0.039,2.486,-0.216,8.660
1.170,0.065,-0.057,2.424,-0.163,8.462
1.244,0.076,-0.078,2.332,-0.078,8.143
1.296,0.063,-0.093,2.242,-0.006,7.805
1.352,0.054,-0.098,2.156,0.061,7.450
1.411,0.050,-0.102,2.072,0.128,7.074
1.471,0.058,-0.106,1.984,0.186,6.675
1.526,0.071,-0.106,1.891,0.237,6.252
1.572,0.095,-0.105,1.786,0.294,5.798
1.612,0.109,-0.104,1.673,0.345,5.312
1.640,0.110,-0.102,1.553,0.382,4.803
1.658,0.103,-0.098,1.428,0.401,4.278
1.670,0.096,-0.089,1.299,0.403,3.743
1.680,0.094,-0.076,1.167,0.397,3.204
1.686,0.097,-0.065,1.033,0.381,2.671
1.682,0.110,-0.054,0.898,0.349,2.153
1.673,0.128,-0.041,0.762,0.295,1.651
1.616,0.252,-0.013,0.180,-0.054,-0.179
1.599,0.284,-0.013,0.052,-0.133,-0.508
1.583,0.313,-0.016,-0.071,-0.202,-0.805
1.560,0.339,-0.019,-0.187,-0.256,-1.068
1.532,0.357,-0.025,-0.296,-0.301,-1.303
1.507,0.373,-0.032,-0.396,-0.337,-1.508
1.482,0.386,-0.038,-0.486,-0.365,-1.688
1.458,0.399,-0.043,-0.570,-0.382,-1.845
1.434,0.410,-0.047,-0.645,-0.391,-1.982
1.409,0.419,-0.051,-0.715,-0.391,-2.102
1.382,0.423,-0.052,-0.779,-0.380,-2.210
1.357,0.425,-0.051,-0.841,-0.359,-2.308
1.332,0.431,-0.049,-0.898,-0.329,-2.400
1.304,0.432,-0.045,-0.956,-0.288,-2.488
1.275,0.426,-0.036,-1.012,-0.239,-2.575
1.248,0.430,-0.028,-1.063,-0.180,-2.666
1.213,0.432,-0.017,-1.122,-0.121,-2.756
1.037,0.430,0.070,-1.418,0.145,-3.192
0.999,0.433,0.089,-1.479,0.196,-3.280
0.961,0.435,0.108,-1.536,0.251,-3.363
0.922,0.445,0.131,-1.586,0.308,-3.436
0.880,0.455,0.153,-1.636,0.359,-3.503
0.840,0.456,0.174,-1.683,0.402,-3.565
0.805,0.459,0.197,-1.722,0.445,-3.629
0.774,0.462,0.221,-1.758,0.481,-3.691
0.744,0.463,0.245,-1.793,0.513,-3.750
0.715,0.467,0.266,-1.828,0.534,-3.807
0.686,0.482,0.287,-1.865,0.549,-3.859
0.656,0.495,0.307,-1.899,0.556,-3.904

-0.362,1.116,0.486,0.414,0.305,0.326
-0.409,1.140,0.503,0.466,0.315,0.440
-0.461,1.164,0.518,0.524,0.324,0.569
-0.518,1.186,0.532,0.586,0.329,0.715
-0.578,1.209,0.548,0.656,0.330,0.881
-0.641,1.231,0.563,0.729,0.326,1.066
-0.705,1.254,0.575,0.809,0.316,1.275
-0.767,1.277,0.588,0.892,0.308,1.505
-0.831,1.299,0.599,0.979,0.298,1.757
-0.889,1.319,0.608,1.071,0.284,2.033
-0.945,1.335,0.614,1.166,0.267,2.331
-0.997,1.343,0.618,1.265,0.242,2.651
-1.044,1.336,0.614,1.368,0.210,2.994
-1.086,1.315,0.608,1.474,0.169,3.354
-1.120,1.279,0.598,1.579,0.118,3.730
-1.143,1.228,0.584,1.681,0.059,4.119
-1.151,1.164,0.564,1.780,0.003,4.512
-1.143,1.096,0.542,1.878,-0.034,4.907
-1.132,1.035,0.519,1.975,-0.045,5.297
-1.097,0.968,0.496,2.064,-0.040,5.670
-1.043,0.896,0.473,2.145,-0.022,6.037
-1.002,0.845,0.459,2.194,-0.005,6.277
-0.936,0.756,0.444,2.256,0.016,6.623
-0.865,0.661,0.429,2.298,0.015,6.948
-0.783,0.568,0.409,2.320,-0.006,7.248
-0.690,0.483,0.386,2.325,-0.046,7.520
-0.199,0.220,0.241,2.211,-0.291,8.275
-0.104,0.192,0.209,2.168,-0.334,8.306
-0.012,0.164,0.176,2.118,-0.374,8.292
0.080,0.140,0.137,2.067,-0.403,8.240
0.173,0.120,0.100,2.014,-0.419,8.155
0.236,0.112,0.073,1.976,-0.420,8.084
0.331,0.104,0.033,1.919,-0.411,7.959
0.428,0.097,-0.006,1.857,-0.391,7.817
0.523,0.091,-0.044,1.792,-0.355,7.661
0.621,0.090,-0.078,1.721,-0.306,7.496
0.723,0.093,-0.107,1.640,-0.247,7.322
0.830,0.103,-0.133,1.548,-0.175,7.138
0.941,0.125,-0.156,1.444,-0.093,6.938
1.054,0.150,-0.176,1.335,-0.003,6.722
1.163,0.177,-0.190,1.217,0.096,6.483
1.266,0.204,-0.193,1.096,0.196,6.224
1.359,0.229,-0.193,0.970,0.292,5.937
1.442,0.251,-0.188,0.842,0.382,5.625
1.516,0.268,-0.177,0.716,0.463,5.288
1.578,0.273,-0.162,0.598,0.530,4.928
1.628,0.273,-0.144,0.485,0.579,4.545
1.666,0.272,-0.126,0.382,0.609,4.145
1.691,0.268,-0.104,0.289,0.619,3.731
1.702,0.265,-0.081,0.205,0.613,3.307
1.707,0.260,-0.056,0.129,0.593,2.872
1.704,0.258,-0.031,0.057,0.561,2.436
1.647,0.310,0.036,-0.215,0.326,0.637
1.627,0.331,0.040,-0.270,0.268,0.277
1.608,0.352,0.038,-0.322,0.220,-0.053
1.588,0.372,0.035,-0.368,0.185,-0.351
1.571,0.392,0.028,-0.409,0.168,-0.623
1.554,0.412,0.020,-0.444,0.170,-0.868
1.536,0.429,0.012,-0.473,0.190,-1.091
1.519,0.445,0.009,-0.497,0.223,-1.295
1.503,0.457,0.008,-0.519,0.270,-1.480
1.485,0.467,0.011,-0.540,0.322,-1.650
1.467,0.474,0.020,-0.561,0.372,-1.804
1.445,0.477,0.032,-0.582,0.415,-1.949
1.423,0.478,0.045,-0.606,0.446,-2.085
1.401,0.481,0.060,-0.631,0.465,-2.217
1.380,0.476,0.073,-0.660,0.471,-2.347
1.361,0.471,0.087,-0.690,0.473,-2.475
1.341,0.458,0.097,-0.719,0.470,-2.606
1.319,0.445,0.108,-0.746,0.469,-2.740
1.293,0.423,0.115,-0.770,0.469,-2.879
1.264,0.420,0.134,-0.793,0.475,-3.022
1.233,0.399,0.134,-0.818,0.475,-3.165
1.196,0.401,0.144,-0.840,0.484,-3.308
1.156,0.379,0.149,-0.866,0.494,-3.456
0.969,0.380,0.193,-0.959,0.564,-4.078
0.919,0.394,0.211,-0.984,0.578,-4.197
0.863,0.405,0.224,-1.015,0.587,-4.306
0.807,0.412,0.238,-1.048,0.594,-4.407
0.752,0.424,0.255,-1.082,0.597,-4.501

-0.346,1.108,0.520,0.289,0.262,0.469
-0.397,1.124,0.535,0.347,0.292,0.578
-0.449,1.142,0.550,0.407,0.320,0.701
-0.505,1.166,0.567,0.469,0.347,0.842
-0.566,1.192,0.584,0.537,0.367,0.997
-0.631,1.213,0.602,0.609,0.376,1.172
-0.698,1.228,0.622,0.683,0.380,1.364
-0.766,1.239,0.638,0.760,0.382,1.578
-0.838,1.244,0.657,0.840,0.380,1.813
-0.910,1.252,0.673,0.923,0.370,2.068
-0.976,1.262,0.689,1.011,0.360,2.341
-1.039,1.270,0.700,1.107,0.357,2.636
-1.093,1.268,0.708,1.212,0.359,2.952
-1.145,1.255,0.713,1.327,0.359,3.297
-1.193,1.232,0.717,1.446,0.349,3.669
-1.230,1.192,0.721,1.568,0.326,4.069
-1.258,1.141,0.723,1.687,0.284,4.490
-1.273,1.092,0.716,1.801,0.217,4.922
-1.267,1.042,0.705,1.912,0.140,5.357
-1.252,0.991,0.689,2.019,0.062,5.783
-1.209,0.921,0.668,2.122,-0.017,6.186
-1.152,0.837,0.646,2.223,-0.088,6.575
-1.090,0.748,0.618,2.320,-0.147,6.940
-1.021,0.654,0.593,2.407,-0.203,7.279
-0.942,0.567,0.561,2.487,-0.260,7.587
-0.848,0.478,0.526,2.566,-0.306,7.862
-0.743,0.391,0.492,2.638,-0.349,8.107
-0.234,0.075,0.324,2.852,-0.461,8.793
-0.112,0.023,0.286,2.868,-0.481,8.868
0.013,-0.018,0.245,2.870,-0.504,8.917
0.142,-0.046,0.204,2.859,-0.533,8.942
0.273,-0.060,0.162,2.836,-0.566,8.944
0.404,-0.060,0.121,2.804,-0.598,8.922
0.532,-0.037,0.080,2.764,-0.622,8.874
0.662,0.013,0.037,2.717,-0.630,8.799
0.786,0.057,0.000,2.668,-0.608,8.698
0.890,0.081,-0.026,2.608,-0.568,8.567
0.979,0.103,-0.059,2.538,-0.549,8.407
1.042,0.099,-0.080,2.462,-0.554,8.216
1.110,0.089,-0.089,2.376,-0.583,7.988
1.185,0.086,-0.101,2.283,-0.607,7.728
1.265,0.085,-0.114,2.185,-0.622,7.439
1.350,0.093,-0.129,2.088,-0.617,7.127
1.423,0.096,-0.143,1.990,-0.587,6.793
1.487,0.093,-0.156,1.888,-0.545,6.441
1.542,0.087,-0.168,1.782,-0.499,6.074
1.587,0.082,-0.169,1.680,-0.461,5.705
1.619,0.082,-0.171,1.574,-0.415,5.331
1.639,0.081,-0.167,1.462,-0.371,4.952
1.660,0.084,-0.169,1.335,-0.328,4.557
1.686,0.105,-0.170,0.768,-0.178,2.816
1.674,0.112,-0.171,0.637,-0.125,2.404
1.661,0.123,-0.173,0.508,-0.067,1.989
1.649,0.135,-0.172,0.380,-0.004,1.572
1.641,0.143,-0.168,0.260,0.068,1.162
1.631,0.147,-0.161,0.145,0.146,0.765
1.619,0.152,-0.150,0.037,0.221,0.393
1.606,0.161,-0.136,-0.066,0.287,0.050
1.592,0.180,-0.122,-0.164,0.343,-0.262
1.580,0.205,-0.108,-0.259,0.384,-0.541
1.566,0.234,-0.095,-0.351,0.413,-0.792
1.553,0.262,-0.082,-0.438,0.431,-1.014
1.538,0.285,-0.071,-0.520,0.444,-1.214
1.527,0.304,-0.064,-0.595,0.455,-1.392
1.514,0.318,-0.055,-0.661,0.469,-1.550
1.502,0.328,-0.048,-0.717,0.483,-1.690
1.490,0.334,-0.040,-0.764,0.498,-1.818
1.479,0.339,-0.032,-0.802,0.509,-1.934
1.466,0.340,-0.022,-0.834,0.514,-2.040
1.450,0.342,-0.014,-0.862,0.513,-2.140
1.435,0.341,-0.002,-0.888,0.500,-2.238
1.361,0.334,0.037,-1.007,0.378,-2.682
1.330,0.320,0.041,-1.047,0.348,-2.791
1.304,0.290,0.042,-1.089,0.326,-2.914
1.287,0.282,0.044,-1.129,0.314,-3.046
1.266,0.281,0.046,-1.173,0.308,-3.177
1.243,0.279,0.047,-1.219,0.308,-3.307
1.223,0.281,0.051,-1.263,0.319,-3.434
1.199,0.288,0.059,-1.311,0.343,-3.559
1.170,0.290,0.062,-1.362,0.374,-3.683

-0.367,1.100,0.542,0.288,0.502,0.450
-0.428,1.126,0.561,0.343,0.526,0.537
-0.493,1.157,0.581,0.403,0.548,0.637
-0.563,1.188,0.601,0.469,0.564,0.753
-0.640,1.203,0.621,0.540,0.570,0.893
-0.722,1.215,0.640,0.614,0.567,1.054
-0.804,1.233,0.658,0.696,0.568,1.237
-0.884,1.264,0.674,0.788,0.578,1.444
-0.957,1.293,0.690,0.889,0.592,1.686
-1.027,1.312,0.708,1.001,0.601,1.967
-1.094,1.316,0.718,1.121,0.598,2.288
-1.162,1.308,0.727,1.243,0.573,2.650
-1.218,1.294,0.732,1.366,0.528,3.040
-1.246,1.264,0.732,1.488,0.464,3.467
-1.263,1.220,0.727,1.607,0.385,3.939
-1.268,1.174,0.720,1.713,0.289,4.442
-1.247,1.122,0.705,1.808,0.179,4.962
-1.209,1.056,0.686,1.893,0.064,5.484
-1.170,0.989,0.661,1.967,-0.054,5.987
-1.101,0.907,0.633,2.033,-0.165,6.446
-1.008,0.811,0.601,2.100,-0.250,6.874
-0.910,0.707,0.568,2.166,-0.301,7.265
-0.808,0.602,0.537,2.231,-0.330,7.616
-0.703,0.503,0.505,2.294,-0.347,7.923
-0.599,0.421,0.476,2.354,-0.362,8.185
-0.477,0.337,0.445,2.406,-0.377,8.398
0.109,0.050,0.293,2.562,-0.336,8.854
0.227,0.009,0.262,2.562,-0.314,8.847
0.346,-0.015,0.230,2.542,-0.297,8.795
0.469,-0.025,0.200,2.507,-0.284,8.700
0.599,-0.024,0.167,2.458,-0.268,8.564
0.730,-0.015,0.130,2.401,-0.245,8.398
0.852,0.001,0.093,2.342,-0.203,8.204
0.968,0.016,0.065,2.285,-0.138,7.987
1.070,0.031,0.040,2.225,-0.053,7.743
1.163,0.047,0.022,2.159,0.029,7.476
1.245,0.070,0.013,2.083,0.100,7.176
1.325,0.107,0.002,1.996,0.160,6.838
1.404,0.145,-0.009,1.905,0.217,6.460
1.480,0.177,-0.017,1.811,0.277,6.049
1.545,0.190,-0.027,1.719,0.332,5.611
1.598,0.190,-0.034,1.630,0.376,5.157
1.626,0.187,-0.040,1.573,0.397,4.849
1.658,0.183,-0.042,1.489,0.411,4.378
1.683,0.188,-0.043,1.401,0.405,3.898
1.705,0.200,-0.046,1.306,0.384,3.411
1.718,0.217,-0.048,1.207,0.347,2.921
1.721,0.237,-0.052,1.104,0.297,2.433
1.717,0.258,-0.059,0.997,0.239,1.948
1.705,0.277,-0.066,0.890,0.183,1.475
1.686,0.299,-0.072,0.782,0.137,1.023
1.659,0.325,-0.079,0.673,0.109,0.594
1.624,0.354,-0.085,0.564,0.097,0.187
1.584,0.381,-0.090,0.454,0.100,-0.192
1.357,0.488,-0.075,-0.012,0.161,-1.479
1.300,0.514,-0.069,-0.116,0.160,-1.694
1.247,0.538,-0.061,-0.217,0.148,-1.880
1.201,0.561,-0.055,-0.311,0.127,-2.039
1.158,0.580,-0.048,-0.397,0.099,-2.172
1.117,0.594,-0.044,-0.478,0.067,-2.284
1.079,0.605,-0.038,-0.551,0.031,-2.376
1.046,0.615,-0.031,-0.618,-0.005,-2.450
1.019,0.626,-0.026,-0.680,-0.043,-2.511
0.995,0.634,-0.020,-0.738,-0.080,-2.561
0.973,0.640,-0.010,-0.794,-0.120,-2.603
0.953,0.643,-0.004,-0.849,-0.162,-2.642
0.936,0.645,-0.000,-0.904,-0.203,-2.681
0.918,0.646,0.005,-0.959,-0.243,-2.721
0.902,0.641,0.008,-1.013,-0.281,-2.764
0.880,0.640,0.012,-1.065,-0.315,-2.814
0.860,0.631,0.010,-1.115,-0.345,-2.871
0.842,0.636,0.012,-1.160,-0.367,-2.936
0.739,0.612,0.025,-1.360,-0.350,-3.296
0.718,0.616,0.032,-1.394,-0.324,-3.380
0.692,0.616,0.041,-1.429,-0.291,-3.457
0.665,0.613,0.050,-1.462,-0.251,-3.528
0.636,0.616,0.064,-1.494,-0.203,-3.593
0.603,0.622,0.079,-1.529,-0.153,-3.650
0.568,0.622,0.092,-1.564,-0.100,-3.707
0.536,0.626,0.108,-1.597,-0.045,-3.763

-0.401,1.124,0.555,0.400,0.640,0.490
-0.479,1.159,0.590,0.473,0.707,0.610
-0.565,1.197,0.624,0.559,0.772,0.756
-0.660,1.234,0.662,0.662,0.833,0.932
-0.771,1.265,0.700,0.782,0.884,1.146
-0.891,1.292,0.740,0.919,0.915,1.397
-1.018,1.312,0.778,1.071,0.921,1.694
-1.144,1.327,0.814,1.235,0.892,2.037
-1.260,1.341,0.842,1.410,0.831,2.431
-1.365,1.350,0.863,1.596,0.733,2.876
-1.450,1.342,0.879,1.789,0.599,3.367
-1.515,1.316,0.880,1.983,0.437,3.898
-1.551,1.273,0.874,2.172,0.266,4.457
-1.557,1.210,0.856,2.354,0.105,5.030
-1.539,1.132,0.826,2.523,-0.034,5.602
-1.497,1.042,0.784,2.682,-0.149,6.162
-1.435,0.937,0.741,2.829,-0.237,6.698
-1.354,0.824,0.695,2.952,-0.304,7.201
-1.266,0.718,0.643,3.049,-0.376,7.666
-1.172,0.630,0.596,3.117,-0.462,8.064
-1.032,0.513,0.543,3.166,-0.567,8.390
-0.871,0.372,0.479,3.204,-0.659,8.669
-0.700,0.237,0.411,3.233,-0.728,8.904
-0.520,0.132,0.341,3.253,-0.782,9.093
-0.349,0.074,0.274,3.257,-0.827,9.232
-0.178,0.032,0.206,3.237,-0.884,9.312
0.561,-0.015,-0.080,2.854,-1.220,9.079
0.703,-0.006,-0.141,2.723,-1.274,8.916
0.836,0.019,-0.200,2.581,-1.306,8.715
0.963,0.048,-0.255,2.430,-1.303,8.475
1.084,0.081,-0.303,2.269,-1.254,8.201
1.196,0.115,-0.348,2.105,-1.159,7.895
1.295,0.150,-0.382,1.937,-1.022,7.563
1.384,0.175,-0.408,1.767,-0.856,7.207
1.451,0.184,-0.418,1.595,-0.660,6.829
1.512,0.190,-0.422,1.416,-0.457,6.431
1.568,0.187,-0.423,1.239,-0.251,6.018
1.608,0.183,-0.415,1.063,-0.050,5.593
1.637,0.182,-0.400,0.894,0.139,5.151
1.655,0.179,-0.376,0.732,0.312,4.700
1.652,0.191,-0.346,0.576,0.460,4.238
1.654,0.183,-0.313,0.420,0.576,3.773
1.644,0.163,-0.277,0.272,0.678,3.313
1.624,0.144,-0.240,0.137,0.756,2.863
1.599,0.137,-0.204,0.016,0.803,2.422
1.574,0.138,-0.169,-0.090,0.822,1.996
1.550,0.148,-0.135,-0.181,0.813,1.585
1.527,0.167,-0.104,-0.261,0.783,1.194
1.504,0.191,-0.077,-0.328,0.733,0.827
1.484,0.218,-0.059,-0.384,0.668,0.488
1.404,0.337,-0.031,-0.538,0.338,-0.648
1.387,0.365,-0.034,-0.562,0.271,-0.843
1.368,0.391,-0.041,-0.583,0.214,-1.017
1.347,0.413,-0.049,-0.604,0.167,-1.175
1.326,0.433,-0.056,-0.626,0.133,-1.316
1.303,0.450,-0.065,-0.649,0.109,-1.445
1.280,0.464,-0.070,-0.675,0.093,-1.564
1.260,0.477,-0.071,-0.703,0.083,-1.671
1.238,0.488,-0.071,-0.735,0.080,-1.770
1.217,0.497,-0.073,-0.772,0.082,-1.859
1.191,0.505,-0.072,-0.811,0.084,-1.943
1.164,0.513,-0.067,-0.855,0.087,-2.023
1.139,0.522,-0.059,-0.904,0.087,-2.099
1.113,0.526,-0.051,-0.959,0.085,-2.170
1.089,0.531,-0.039,-1.016,0.082,-2.240
1.063,0.525,-0.031,-1.075,0.079,-2.307
1.043,0.539,-0.008,-1.137,0.080,-2.374
1.023,0.543,-0.000,-1.204,0.079,-2.436
0.995,0.563,0.020,-1.276,0.085,-2.491
0.965,0.548,0.033,-1.353,0.088,-2.550
0.876,0.553,0.116,-1.663,0.133,-2.794
0.857,0.564,0.137,-1.735,0.149,-2.832
0.837,0.566,0.157,-1.808,0.163,-2.866
0.820,0.565,0.174,-1.876,0.178,-2.899
0.804,0.569,0.192,-1.943,0.192,-2.935
0.788,0.572,0.210,-2.007,0.204,-2.971
0.773,0.572,0.227,-2.067,0.217,-3.008
0.754,0.568,0.242,-2.121,0.232,-3.042
0.734,0.572,0.253,-2.168,0.254,-3.072
0.713,0.580,0.265,-2.203,0.272,-3.103

-0.448,1.146,0.427,0.173,0.137,0.464
-0.527,1.174,0.441,0.204,0.158,0.583
-0.607,1.194,0.458,0.237,0.165,0.727
-0.665,1.203,0.468,0.261,0.163,0.835
-0.762,1.223,0.483,0.297,0.151,1.014
-0.854,1.257,0.495,0.337,0.143,1.209
-0.930,1.296,0.509,0.381,0.147,1.427
-0.994,1.334,0.522,0.431,0.176,1.675
-1.058,1.364,0.534,0.491,0.217,1.963
-1.133,1.389,0.551,0.554,0.262,2.291
-1.189,1.389,0.565,0.623,0.299,2.653
-1.234,1.366,0.582,0.694,0.315,3.064
-1.280,1.319,0.600,0.765,0.309,3.527
-1.318,1.252,0.618,0.829,0.259,4.032
-1.340,1.178,0.627,0.885,0.144,4.567
-1.330,1.107,0.627,0.940,-0.011,5.113
-1.287,1.035,0.619,0.999,-0.171,5.649
-1.236,0.966,0.605,1.065,-0.319,6.154
-1.157,0.880,0.590,1.137,-0.457,6.610
-1.059,0.784,0.569,1.215,-0.565,7.023
-0.959,0.685,0.551,1.297,-0.643,7.386
-0.857,0.585,0.531,1.378,-0.709,7.701
-0.749,0.487,0.510,1.456,-0.768,7.965
-0.644,0.393,0.487,1.528,-0.834,8.182
-0.535,0.310,0.462,1.593,-0.912,8.352
-0.410,0.232,0.434,1.651,-1.000,8.481
0.086,0.092,0.305,1.762,-1.341,8.562
0.182,0.093,0.272,1.739,-1.421,8.468
0.275,0.099,0.233,1.700,-1.499,8.340
0.364,0.108,0.193,1.650,-1.572,8.184
0.458,0.122,0.149,1.595,-1.628,8.004
0.552,0.142,0.104,1.542,-1.651,7.812
0.647,0.166,0.061,1.494,-1.620,7.611
0.733,0.184,0.021,1.448,-1.534,7.408
0.811,0.192,-0.014,1.403,-1.404,7.203
0.881,0.198,-0.043,1.356,-1.247,6.997
0.950,0.206,-0.063,1.308,-1.062,6.788
1.017,0.218,-0.079,1.257,-0.845,6.568
1.085,0.232,-0.089,1.205,-0.604,6.339
1.152,0.246,-0.093,1.153,-0.350,6.097
1.213,0.257,-0.091,1.099,-0.092,5.843
1.271,0.263,-0.085,1.045,0.161,5.577
1.317,0.260,-0.074,0.992,0.395,5.302
1.355,0.248,-0.055,0.938,0.599,5.016
1.388,0.233,-0.032,0.880,0.763,4.721
1.418,0.223,-0.007,0.817,0.883,4.417
1.449,0.220,0.017,0.753,0.960,4.100
1.477,0.217,0.038,0.691,1.004,3.776
1.500,0.212,0.059,0.630,1.016,3.444
1.516,0.206,0.078,0.571,0.999,3.105
1.527,0.203,0.098,0.513,0.959,2.764
1.537,0.208,0.116,0.453,0.897,2.420
1.544,0.219,0.129,0.396,0.819,2.076
1.547,0.233,0.140,0.337,0.728,1.734
1.549,0.249,0.149,0.277,0.627,1.396
1.527,0.332,0.156,-0.011,0.186,0.086
1.513,0.353,0.152,-0.081,0.095,-0.168
1.497,0.373,0.147,-0.152,0.011,-0.407
1.483,0.392,0.141,-0.222,-0.061,-0.628
1.468,0.408,0.135,-0.293,-0.116,-0.833
1.452,0.423,0.129,-0.359,-0.152,-1.022
1.432,0.435,0.127,-0.424,-0.172,-1.196
1.407,0.447,0.126,-0.486,-0.181,-1.357
1.380,0.457,0.126,-0.545,-0.183,-1.507
1.356,0.466,0.130,-0.601,-0.180,-1.647
1.335,0.470,0.137,-0.654,-0.171,-1.776
1.314,0.474,0.146,-0.703,-0.158,-1.896
1.289,0.472,0.151,-0.749,-0.138,-2.008
1.265,0.485,0.170,-0.791,-0.115,-2.116
1.238,0.485,0.175,-0.834,-0.098,-2.216
1.210,0.505,0.195,-0.874,-0.078,-2.311
1.176,0.491,0.204,-0.917,-0.066,-2.404
1.149,0.470,0.216,-0.959,-0.056,-2.502
1.125,0.477,0.228,-0.998,-0.051,-2.597
1.097,0.484,0.238,-1.039,-0.052,-2.684
0.955,0.490,0.274,-1.184,-0.033,-3.019
0.928,0.492,0.281,-1.207,-0.011,-3.100
0.905,0.496,0.288,-1.224,0.019,-3.182
0.880,0.501,0.293,-1.235,0.054,-3.263
0.855,0.505,0.301,-1.238,0.094,-3.340

-0.394,1.172,0.472,0.288,0.121,0.616
-0.457,1.208,0.481,0.336,0.131,0.728
-0.504,1.234,0.489,0.371,0.139,0.812
-0.580,1.272,0.503,0.427,0.155,0.957
-0.668,1.290,0.523,0.484,0.169,1.127
-0.762,1.309,0.544,0.540,0.171,1.322
-0.856,1.332,0.558,0.599,0.185,1.541
-0.941,1.362,0.571,0.666,0.214,1.787
-1.011,1.393,0.586,0.748,0.264,2.069
-1.074,1.408,0.604,0.843,0.337,2.399
-1.152,1.403,0.623,0.951,0.420,2.779
-1.223,1.375,0.645,1.067,0.490,3.195
-1.272,1.321,0.667,1.189,0.527,3.661
-1.306,1.251,0.685,1.307,0.529,4.178
-1.331,1.175,0.704,1.418,0.493,4.733
-1.338,1.108,0.719,1.517,0.409,5.300
-1.331,1.048,0.729,1.604,0.291,5.863
-1.298,0.980,0.731,1.685,0.146,6.391
-1.225,0.889,0.728,1.768,-0.012,6.888
-1.143,0.782,0.721,1.856,-0.156,7.355
-1.057,0.664,0.711,1.948,-0.294,7.781
-0.967,0.539,0.697,2.042,-0.427,8.165
-0.873,0.419,0.682,2.137,-0.558,8.505
-0.770,0.309,0.665,2.230,-0.698,8.797
-0.654,0.199,0.648,2.314,-0.845,9.043
-0.536,0.109,0.623,2.388,-0.996,9.247
0.018,-0.089,0.433,2.586,-1.735,9.621
0.151,-0.104,0.373,2.602,-1.882,9.592
0.283,-0.091,0.306,2.607,-2.006,9.519
0.417,-0.060,0.233,2.606,-2.097,9.410
0.551,-0.029,0.161,2.599,-2.140,9.274
0.663,-0.008,0.092,2.584,-2.149,9.125
0.747,0.006,0.034,2.558,-2.131,8.960
0.815,0.017,-0.022,2.522,-2.104,8.777
0.878,0.024,-0.070,2.476,-2.067,8.574
0.957,0.032,-0.111,2.426,-2.011,8.351
1.047,0.052,-0.150,2.369,-1.911,8.109
1.139,0.076,-0.188,2.307,-1.772,7.850
1.219,0.097,-0.220,2.241,-1.601,7.573
1.290,0.111,-0.246,2.167,-1.407,7.274
1.355,0.122,-0.265,2.083,-1.197,6.954
1.418,0.128,-0.279,1.989,-0.980,6.614
1.481,0.139,-0.293,1.892,-0.763,6.259
1.531,0.144,-0.295,1.796,-0.540,5.892
1.579,0.151,-0.297,1.697,-0.318,5.513
1.615,0.149,-0.289,1.600,-0.103,5.124
1.643,0.145,-0.277,1.497,0.096,4.724
1.661,0.134,-0.259,1.391,0.267,4.315
1.673,0.125,-0.242,1.280,0.400,3.896
1.682,0.120,-0.224,1.171,0.491,3.472
1.635,0.125,-0.143,0.731,0.536,1.644
1.616,0.141,-0.129,0.630,0.483,1.241
1.597,0.162,-0.119,0.531,0.410,0.854
1.579,0.182,-0.109,0.435,0.324,0.487
1.556,0.205,-0.107,0.342,0.233,0.145
1.535,0.226,-0.105,0.250,0.144,-0.169
1.512,0.250,-0.105,0.160,0.056,-0.454
1.487,0.277,-0.109,0.071,-0.027,-0.711
1.463,0.306,-0.114,-0.014,-0.105,-0.943
1.441,0.334,-0.122,-0.097,-0.179,-1.150
1.423,0.359,-0.133,-0.175,-0.247,-1.337
1.407,0.381,-0.144,-0.247,-0.306,-1.504
1.389,0.396,-0.155,-0.315,-0.353,-1.655
1.371,0.409,-0.164,-0.378,-0.390,-1.792
1.354,0.418,-0.173,-0.438,-0.413,-1.919
1.339,0.424,-0.182,-0.498,-0.427,-2.034
1.323,0.430,-0.188,-0.553,-0.430,-2.142
1.307,0.435,-0.191,-0.610,-0.426,-2.246
1.288,0.424,-0.199,-0.665,-0.415,-2.344
1.272,0.442,-0.188,-0.719,-0.393,-2.447
1.158,0.423,-0.179,-1.028,-0.271,-2.846
1.130,0.427,-0.169,-1.136,-0.222,-2.976
1.107,0.428,-0.159,-1.216,-0.184,-3.067
1.083,0.434,-0.147,-1.294,-0.137,-3.153
1.055,0.443,-0.131,-1.375,-0.082,-3.234
1.023,0.441,-0.116,-1.455,-0.022,-3.312
0.994,0.436,-0.101,-1.532,0.040,-3.394
0.967,0.431,-0.085,-1.608,0.106,-3.479
0.938,0.426,-0.069,-1.680,0.172,-3.567
0.908,0.421,-0.051,-1.747,0.236,-3.657

-0.348,1.112,0.512,0.464,0.142,0.823
-0.389,1.126,0.522,0.509,0.152,0.942
-0.431,1.139,0.535,0.556,0.166,1.078
-0.474,1.155,0.546,0.606,0.183,1.230
-0.518,1.173,0.559,0.659,0.204,1.401
-0.570,1.190,0.573,0.716,0.227,1.589
-0.625,1.207,0.586,0.779,0.248,1.793
-0.685,1.221,0.601,0.848,0.263,2.017
-0.743,1.228,0.613,0.924,0.270,2.258
-0.796,1.229,0.624,1.007,0.270,2.522
-0.846,1.223,0.634,1.094,0.261,2.807
-0.889,1.209,0.640,1.186,0.239,3.115
-0.921,1.187,0.644,1.282,0.206,3.445
-0.941,1.157,0.647,1.381,0.163,3.793
-0.950,1.118,0.646,1.479,0.106,4.158
-0.944,1.076,0.643,1.574,0.035,4.534
-0.929,1.036,0.637,1.661,-0.050,4.905
-0.890,0.982,0.626,1.743,-0.150,5.262
-0.839,0.917,0.611,1.823,-0.253,5.612
-0.781,0.848,0.591,1.900,-0.357,5.947
-0.715,0.776,0.574,1.973,-0.459,6.260
-0.645,0.709,0.553,2.042,-0.563,6.547
-0.573,0.649,0.530,2.109,-0.661,6.807
-0.501,0.587,0.505,2.171,-0.752,7.032
-0.429,0.523,0.482,2.227,-0.828,7.228
-0.358,0.466,0.458,2.275,-0.888,7.393
-0.110,0.300,0.372,2.364,-1.008,7.779
-0.058,0.266,0.348,2.360,-1.033,7.807
-0.001,0.232,0.326,2.349,-1.065,7.821
0.064,0.202,0.301,2.331,-1.104,7.824
0.135,0.180,0.274,2.306,-1.143,7.819
0.217,0.162,0.241,2.281,-1.186,7.806
0.316,0.145,0.204,2.256,-1.217,7.784
0.423,0.129,0.163,2.237,-1.232,7.754
0.542,0.117,0.126,2.224,-1.212,7.709
0.668,0.112,0.088,2.211,-1.161,7.650
0.801,0.117,0.049,2.199,-1.071,7.569
0.931,0.131,0.013,2.187,-0.956,7.470
1.058,0.150,-0.017,2.173,-0.829,7.346
1.175,0.169,-0.043,2.154,-0.701,7.201
1.285,0.186,-0.067,2.132,-0.585,7.028
1.387,0.198,-0.086,2.106,-0.486,6.829
1.481,0.199,-0.098,2.078,-0.405,6.604
1.565,0.203,-0.106,2.042,-0.344,6.347
1.640,0.209,-0.113,2.003,-0.303,6.065
1.698,0.210,-0.116,1.958,-0.278,5.759
1.727,0.203,-0.112,1.905,-0.278,5.430
1.735,0.192,-0.110,1.838,-0.305,5.078
1.740,0.187,-0.106,1.757,-0.357,4.705
1.749,0.187,-0.109,1.663,-0.438,4.308
1.743,0.155,-0.163,1.178,-0.756,2.359
1.708,0.129,-0.170,1.055,-0.759,1.892
1.675,0.123,-0.178,0.928,-0.758,1.428
1.648,0.134,-0.187,0.800,-0.747,0.973
1.625,0.156,-0.196,0.668,-0.725,0.528
1.604,0.182,-0.208,0.534,-0.693,0.103
1.581,0.208,-0.219,0.401,-0.649,-0.296
1.556,0.231,-0.227,0.272,-0.594,-0.664
1.528,0.248,-0.236,0.151,-0.528,-0.995
1.498,0.262,-0.243,0.038,-0.454,-1.290
1.470,0.280,-0.249,-0.066,-0.377,-1.550
1.442,0.303,-0.256,-0.161,-0.295,-1.776
1.413,0.327,-0.258,-0.247,-0.217,-1.976
1.382,0.351,-0.258,-0.328,-0.146,-2.152
1.351,0.372,-0.252,-0.404,-0.084,-2.306
1.318,0.386,-0.243,-0.478,-0.033,-2.443
1.285,0.397,-0.233,-0.548,0.005,-2.564
1.251,0.406,-0.224,-0.617,0.033,-2.672
1.218,0.411,-0.211,-0.686,0.049,-2.771
1.076,0.445,-0.163,-0.970,0.053,-3.136
1.041,0.424,-0.153,-1.037,0.052,-3.213
1.011,0.421,-0.139,-1.101,0.054,-3.290
0.982,0.422,-0.127,-1.166,0.061,-3.360
0.951,0.426,-0.116,-1.229,0.070,-3.421
0.921,0.434,-0.102,-1.290,0.087,-3.474
0.889,0.445,-0.088,-1.354,0.113,-3.517
0.855,0.452,-0.072,-1.421,0.142,-3.557
0.822,0.460,-0.055,-1.488,0.171,-3.596
0.792,0.468,-0.041,-1.557,0.198,-3.638
0.765,0.475,-0.026,-1.626,0.221,-3.679

-0.364,1.088,0.546,0.311,0.238,0.492
-0.420,1.114,0.568,0.358,0.266,0.594
-0.484,1.146,0.588,0.407,0.295,0.712
-0.555,1.181,0.611,0.460,0.319,0.847
-0.634,1.221,0.635,0.518,0.343,1.003
-0.722,1.259,0.658,0.586,0.360,1.179
-0.820,1.299,0.684,0.663,0.360,1.382
-0.887,1.321,0.701,0.720,0.352,1.534
-0.988,1.348,0.729,0.813,0.329,1.785
-1.081,1.369,0.758,0.918,0.289,2.075
-1.169,1.379,0.790,1.035,0.230,2.410
-1.255,1.378,0.820,1.158,0.147,2.793
-1.333,1.358,0.845,1.286,0.029,3.221
-1.396,1.315,0.860,1.422,-0.131,3.693
-1.455,1.253,0.866,1.559,-0.328,4.203
-1.496,1.179,0.854,1.696,-0.551,4.736
-1.510,1.088,0.834,1.836,-0.782,5.281
-1.499,0.991,0.804,1.973,-1.012,5.826
-1.461,0.899,0.764,2.110,-1.230,6.354
-1.399,0.802,0.716,2.243,-1.415,6.857
-1.318,0.706,0.672,2.371,-1.562,7.326
-1.236,0.624,0.625,2.486,-1.676,7.749
-1.121,0.527,0.581,2.594,-1.773,8.113
-0.991,0.422,0.535,2.695,-1.847,8.437
-0.861,0.318,0.490,2.788,-1.894,8.719
-0.731,0.213,0.444,2.877,-1.929,8.960
-0.147,-0.119,0.265,3.119,-2.150,9.543
-0.002,-0.166,0.214,3.122,-2.222,9.579
0.142,-0.194,0.161,3.105,-2.297,9.577
0.295,-0.199,0.107,3.071,-2.368,9.537
0.467,-0.183,0.044,3.027,-2.432,9.463
0.646,-0.147,-0.021,2.978,-2.462,9.365
0.818,-0.094,-0.084,2.934,-2.448,9.244
0.975,-0.044,-0.145,2.897,-2.385,9.102
1.106,-0.011,-0.190,2.863,-2.276,8.941
1.207,0.011,-0.228,2.826,-2.144,8.751
1.289,0.028,-0.253,2.775,-2.014,8.527
1.374,0.043,-0.277,2.706,-1.883,8.266
1.461,0.055,-0.298,2.621,-1.743,7.968
1.552,0.070,-0.320,2.523,-1.588,7.638
1.626,0.080,-0.338,2.421,-1.421,7.285
1.684,0.084,-0.351,2.310,-1.244,6.909
1.719,0.081,-0.357,2.189,-1.076,6.511
1.740,0.074,-0.364,2.051,-0.932,6.085
1.755,0.058,-0.367,1.899,-0.815,5.640
1.761,0.042,-0.371,1.731,-0.718,5.172
1.768,0.028,-0.374,1.556,-0.641,4.687
1.784,0.018,-0.381,1.381,-0.578,4.198
1.711,0.017,-0.364,0.680,-0.322,2.169
1.693,0.030,-0.357,0.517,-0.250,1.708
1.673,0.044,-0.350,0.359,-0.164,1.256
1.653,0.059,-0.343,0.205,-0.070,0.812
1.636,0.076,-0.336,0.063,0.022,0.384
1.619,0.093,-0.328,-0.069,0.111,-0.021
1.599,0.114,-0.319,-0.187,0.195,-0.399
1.577,0.136,-0.307,-0.296,0.271,-0.745
1.550,0.163,-0.294,-0.396,0.339,-1.056
1.522,0.193,-0.280,-0.491,0.399,-1.335
1.494,0.221,-0.264,-0.578,0.450,-1.580
1.465,0.249,-0.251,-0.660,0.496,-1.795
1.433,0.270,-0.235,-0.735,0.542,-1.982
1.400,0.287,-0.221,-0.807,0.586,-2.144
1.365,0.304,-0.204,-0.876,0.631,-2.284
1.330,0.320,-0.190,-0.945,0.670,-2.405
1.296,0.335,-0.174,-1.012,0.706,-2.509
1.262,0.348,-0.157,-1.081,0.734,-2.602
1.228,0.363,-0.144,-1.151,0.756,-2.683
1.196,0.377,-0.127,-1.224,0.769,-2.757
1.081,0.421,-0.065,-1.564,0.774,-3.044
1.061,0.448,-0.047,-1.633,0.778,-3.092
1.035,0.441,-0.037,-1.707,0.784,-3.135
1.014,0.428,-0.026,-1.772,0.801,-3.187
0.999,0.435,-0.011,-1.834,0.830,-3.241
0.981,0.441,-0.001,-1.889,0.863,-3.287
0.959,0.445,0.009,-1.945,0.899,-3.327
0.937,0.459,0.023,-1.994,0.938,-3.360
0.914,0.471,0.041,-2.041,0.975,-3.386
0.892,0.475,0.057,-2.079,1.016,-3.412
0.872,0.481,0.072,-2.111,1.060,-3.440
0.853,0.485,0.087,-2.134,1.107,-3.470

-0.344,1.097,0.537,0.359,0.154,0.459
-0.395,1.115,0.554,0.413,0.168,0.532
-0.454,1.137,0.569,0.473,0.182,0.616
-0.519,1.161,0.589,0.540,0.203,0.709
-0.564,1.177,0.604,0.587,0.221,0.779
-0.633,1.203,0.626,0.666,0.251,0.899
-0.708,1.232,0.647,0.755,0.286,1.045
-0.784,1.264,0.672,0.854,0.321,1.224
-0.857,1.297,0.697,0.965,0.353,1.440
-0.938,1.330,0.727,1.087,0.379,1.705
-1.030,1.360,0.756,1.214,0.384,2.010
-1.107,1.379,0.781,1.347,0.358,2.366
-1.183,1.385,0.811,1.484,0.306,2.784
-1.259,1.367,0.834,1.615,0.237,3.258
-1.329,1.327,0.851,1.744,0.140,3.780
-1.394,1.275,0.858,1.872,0.014,4.335
-1.436,1.216,0.855,2.001,-0.150,4.908
-1.454,1.152,0.848,2.127,-0.343,5.479
-1.416,1.065,0.830,2.253,-0.549,6.026
-1.357,0.952,0.809,2.382,-0.736,6.564
-1.299,0.826,0.782,2.511,-0.892,7.075
-1.226,0.692,0.752,2.638,-1.027,7.552
-1.144,0.555,0.725,2.762,-1.163,7.994
-1.053,0.423,0.696,2.879,-1.320,8.395
-0.954,0.298,0.663,2.987,-1.514,8.749
-0.836,0.184,0.630,3.088,-1.754,9.052
-0.134,-0.156,0.411,3.410,-3.158,9.795
0.040,-0.213,0.340,3.443,-3.512,9.819
0.213,-0.255,0.261,3.459,-3.859,9.782
0.389,-0.274,0.172,3.460,-4.191,9.686
0.573,-0.276,0.076,3.451,-4.503,9.537
0.754,-0.251,-0.025,3.437,-4.776,9.345
0.924,-0.198,-0.129,3.415,-4.988,9.113
1.070,-0.142,-0.230,3.383,-5.114,8.844
1.188,-0.092,-0.330,3.331,-5.156,8.536
1.280,-0.050,-0.418,3.254,-5.135,8.186
1.365,-0.012,-0.500,3.146,-5.058,7.795
1.454,0.022,-0.579,3.008,-4.906,7.371
1.542,0.052,-0.655,2.846,-4.671,6.916
1.624,0.078,-0.723,2.663,-4.361,6.441
1.696,0.100,-0.784,2.467,-3.991,5.953
1.751,0.118,-0.834,2.264,-3.572,5.465
1.782,0.131,-0.867,2.056,-3.103,4.980
1.796,0.148,-0.884,1.840,-2.600,4.496
1.790,0.156,-0.888,1.611,-2.083,4.011
1.767,0.157,-0.880,1.371,-1.558,3.522
1.744,0.157,-0.864,1.123,-1.040,3.023
1.723,0.162,-0.838,0.876,-0.536,2.518
1.578,0.167,-0.647,-0.036,1.222,0.425
1.533,0.183,-0.587,-0.205,1.476,0.000
1.491,0.208,-0.527,-0.360,1.667,-0.391
1.449,0.240,-0.471,-0.500,1.792,-0.745
1.405,0.271,-0.420,-0.631,1.856,-1.060
1.360,0.303,-0.372,-0.753,1.865,-1.338
1.314,0.334,-0.330,-0.867,1.825,-1.580
1.273,0.362,-0.296,-0.974,1.753,-1.792
1.238,0.387,-0.269,-1.068,1.661,-1.974
1.205,0.412,-0.249,-1.154,1.559,-2.132
1.167,0.444,-0.227,-1.250,1.420,-2.305
1.150,0.460,-0.219,-1.291,1.353,-2.379
1.126,0.484,-0.209,-1.343,1.261,-2.474
1.100,0.504,-0.199,-1.387,1.180,-2.552
1.076,0.522,-0.190,-1.422,1.108,-2.616
1.053,0.536,-0.181,-1.452,1.045,-2.667
1.030,0.544,-0.171,-1.477,0.989,-2.705
1.006,0.552,-0.158,-1.501,0.935,-2.734
0.986,0.559,-0.145,-1.523,0.886,-2.755
0.968,0.570,-0.132,-1.544,0.841,-2.771
0.880,0.593,-0.068,-1.678,0.663,-2.819
0.866,0.615,-0.050,-1.713,0.641,-2.826
0.845,0.604,-0.037,-1.757,0.619,-2.833
0.831,0.587,-0.025,-1.799,0.608,-2.853
0.822,0.589,-0.008,-1.836,0.607,-2.879
0.810,0.591,0.008,-1.877,0.609,-2.903
0.797,0.588,0.022,-1.915,0.616,-2.928
0.783,0.593,0.038,-1.952,0.635,-2.951
0.765,0.598,0.056,-1.990,0.663,-2.976
0.744,0.592,0.073,-2.028,0.693,-3.004
0.724,0.586,0.090,-2.064,0.730,-3.044
0.705,0.582,0.105,-2.094,0.774,-3.088

-0.401,1.100,0.511,0.369,0.071,0.607
-0.456,1.115,0.519,0.410,0.113,0.698
-0.513,1.126,0.527,0.457,0.155,0.798
-0.565,1.150,0.536,0.511,0.199,0.907
-0.600,1.169,0.543,0.550,0.232,0.985
-0.649,1.204,0.560,0.615,0.288,1.119
-0.697,1.239,0.583,0.683,0.349,1.275
-0.750,1.267,0.603,0.751,0.400,1.460
-0.810,1.291,0.621,0.821,0.431,1.679
-0.871,1.304,0.642,0.890,0.435,1.933
-0.936,1.307,0.662,0.960,0.413,2.223
-0.997,1.304,0.680,1.032,0.361,2.550
-1.047,1.296,0.695,1.104,0.282,2.914
-1.086,1.274,0.704,1.175,0.171,3.313
-1.112,1.239,0.709,1.248,0.028,3.738
-1.115,1.189,0.707,1.325,-0.135,4.179
-1.095,1.127,0.699,1.408,-0.298,4.626
-1.057,1.055,0.680,1.495,-0.451,5.066
-1.004,0.988,0.657,1.592,-0.570,5.486
-0.950,0.926,0.640,1.693,-0.645,5.880
-0.891,0.862,0.625,1.792,-0.698,6.240
-0.834,0.795,0.613,1.887,-0.741,6.571
-0.779,0.723,0.605,1.972,-0.783,6.866
-0.727,0.648,0.599,2.048,-0.838,7.131
-0.681,0.579,0.594,2.115,-0.899,7.366
-0.640,0.518,0.589,2.174,-0.971,7.570
-0.448,0.271,0.539,2.385,-1.496,8.180
-0.385,0.209,0.516,2.427,-1.673,8.274
-0.314,0.150,0.487,2.470,-1.853,8.358
-0.231,0.091,0.452,2.509,-2.036,8.429
-0.135,0.038,0.412,2.546,-2.209,8.489
-0.030,-0.002,0.369,2.579,-2.367,8.535
0.086,-0.027,0.319,2.605,-2.505,8.563
0.211,-0.034,0.265,2.624,-2.624,8.565
0.344,-0.033,0.208,2.638,-2.722,8.540
0.484,-0.031,0.156,2.647,-2.790,8.488
0.628,-0.026,0.098,2.649,-2.827,8.405
0.771,-0.017,0.038,2.646,-2.829,8.292
0.911,-0.009,-0.021,2.636,-2.795,8.147
1.049,0.000,-0.077,2.619,-2.733,7.971
1.184,0.016,-0.133,2.597,-2.651,7.773
1.315,0.043,-0.185,2.567,-2.547,7.558
1.431,0.061,-0.231,2.534,-2.424,7.330
1.517,0.066,-0.269,2.488,-2.296,7.088
1.595,0.080,-0.306,2.424,-2.201,6.825
1.669,0.100,-0.337,2.347,-2.138,6.544
1.733,0.125,-0.364,2.256,-2.090,6.235
1.794,0.146,-0.391,2.153,-2.043,5.902
1.841,0.159,-0.417,2.041,-1.988,5.550
1.862,0.124,-0.481,1.420,-1.559,3.821
1.847,0.122,-0.486,1.247,-1.427,3.383
1.823,0.118,-0.488,1.065,-1.292,2.931
1.793,0.114,-0.487,0.874,-1.155,2.464
1.759,0.112,-0.484,0.679,-1.016,1.991
1.722,0.110,-0.478,0.483,-0.873,1.512
1.681,0.108,-0.471,0.292,-0.731,1.037
1.640,0.113,-0.462,0.106,-0.600,0.566
1.602,0.127,-0.452,-0.069,-0.485,0.111
1.567,0.146,-0.444,-0.232,-0.387,-0.322
1.538,0.169,-0.435,-0.380,-0.305,-0.727
1.508,0.194,-0.424,-0.513,-0.233,-1.095
1.479,0.223,-0.415,-0.631,-0.169,-1.424
1.450,0.253,-0.404,-0.735,-0.112,-1.717
1.420,0.282,-0.396,-0.827,-0.055,-1.972
1.388,0.306,-0.384,-0.908,0.002,-2.193
1.354,0.327,-0.374,-0.982,0.057,-2.388
1.324,0.346,-0.365,-1.050,0.111,-2.557
1.292,0.363,-0.354,-1.115,0.160,-2.705
1.256,0.377,-0.342,-1.177,0.204,-2.836
1.104,0.406,-0.284,-1.458,0.318,-3.307
1.074,0.413,-0.271,-1.521,0.335,-3.390
1.051,0.428,-0.252,-1.587,0.352,-3.467
1.015,0.433,-0.233,-1.658,0.371,-3.535
0.978,0.413,-0.217,-1.734,0.388,-3.608
0.950,0.409,-0.198,-1.807,0.410,-3.689
0.922,0.411,-0.179,-1.884,0.435,-3.767
0.890,0.412,-0.158,-1.962,0.467,-3.842
0.855,0.420,-0.136,-2.040,0.513,-3.911
0.815,0.433,-0.113,-2.120,0.569,-3.976
0.772,0.440,-0.088,-2.203,0.632,-4.038

-0.300,1.145,0.553,0.538,0.015,0.736
-0.346,1.157,0.567,0.613,0.012,0.890
-0.394,1.165,0.584,0.687,0.002,1.064
-0.448,1.175,0.602,0.764,-0.011,1.259
-0.506,1.190,0.621,0.840,-0.031,1.467
-0.560,1.204,0.640,0.914,-0.057,1.688
-0.612,1.210,0.654,0.992,-0.098,1.925
-0.654,1.214,0.667,1.073,-0.163,2.177
-0.685,1.212,0.674,1.162,-0.235,2.449
-0.705,1.203,0.676,1.264,-0.299,2.741
-0.716,1.189,0.678,1.377,-0.353,3.056
-0.735,1.164,0.682,1.495,-0.405,3.391
-0.740,1.121,0.680,1.614,-0.477,3.732
-0.726,1.069,0.674,1.731,-0.566,4.084
-0.698,1.014,0.667,1.846,-0.663,4.445
-0.656,0.956,0.658,1.953,-0.770,4.807
-0.605,0.902,0.644,2.052,-0.892,5.167
-0.548,0.854,0.626,2.139,-1.023,5.514
-0.491,0.809,0.606,2.214,-1.166,5.831
-0.418,0.753,0.585,2.275,-1.328,6.109
-0.342,0.696,0.561,2.325,-1.497,6.353
-0.262,0.633,0.531,2.362,-1.674,6.560
-0.178,0.563,0.498,2.391,-1.853,6.730
-0.097,0.497,0.461,2.410,-2.036,6.863
0.216,0.298,0.256,2.389,-2.916,7.020
0.293,0.273,0.206,2.363,-3.131,6.971
0.370,0.254,0.149,2.329,-3.334,6.898
0.445,0.242,0.092,2.288,-3.517,6.805
0.518,0.236,0.033,2.240,-3.673,6.694
0.587,0.234,-0.019,2.188,-3.792,6.567
0.653,0.237,-0.077,2.128,-3.868,6.430
0.718,0.242,-0.133,2.062,-3.903,6.284
0.784,0.246,-0.188,1.990,-3.891,6.133
0.850,0.252,-0.244,1.913,-3.833,5.980
0.918,0.258,-0.298,1.833,-3.734,5.827
0.987,0.267,-0.347,1.746,-3.599,5.668
1.055,0.280,-0.391,1.659,-3.432,5.506
1.129,0.296,-0.431,1.567,-3.238,5.337
1.200,0.314,-0.466,1.472,-3.020,5.159
1.265,0.327,-0.495,1.373,-2.774,4.969
1.324,0.333,-0.519,1.271,-2.507,4.766
1.375,0.335,-0.535,1.165,-2.222,4.550
1.417,0.337,-0.546,1.053,-1.928,4.322
1.453,0.340,-0.549,0.937,-1.635,4.080
1.483,0.340,-0.544,0.815,-1.347,3.828
1.502,0.339,-0.533,0.692,-1.068,3.563
1.512,0.339,-0.516,0.564,-0.802,3.290
1.517,0.337,-0.494,0.434,-0.556,3.006
1.477,0.320,-0.364,-0.149,0.265,1.723
1.459,0.318,-0.332,-0.274,0.383,1.424
1.440,0.316,-0.297,-0.390,0.470,1.127
1.421,0.318,-0.264,-0.495,0.532,0.836
1.404,0.323,-0.231,-0.590,0.569,0.553
1.386,0.329,-0.204,-0.672,0.590,0.278
1.369,0.339,-0.182,-0.742,0.590,0.013
1.352,0.351,-0.164,-0.798,0.573,-0.241
1.336,0.364,-0.151,-0.839,0.541,-0.482
1.321,0.375,-0.140,-0.867,0.501,-0.711
1.307,0.385,-0.133,-0.881,0.458,-0.923
1.291,0.396,-0.131,-0.886,0.418,-1.119
1.274,0.408,-0.131,-0.882,0.384,-1.299
1.257,0.423,-0.130,-0.873,0.352,-1.465
1.236,0.437,-0.127,-0.860,0.327,-1.618
1.213,0.453,-0.125,-0.846,0.303,-1.758
1.188,0.466,-0.122,-0.834,0.284,-1.887
1.163,0.479,-0.117,-0.827,0.271,-2.005
1.137,0.487,-0.109,-0.826,0.264,-2.112
1.108,0.485,-0.104,-0.827,0.263,-2.213
0.966,0.511,-0.065,-0.930,0.296,-2.564
0.938,0.509,-0.053,-0.973,0.305,-2.638
0.910,0.516,-0.045,-1.021,0.317,-2.704
0.885,0.525,-0.038,-1.071,0.329,-2.762
0.862,0.538,-0.030,-1.121,0.347,-2.808
0.835,0.551,-0.019,-1.173,0.372,-2.845
0.807,0.555,-0.009,-1.226,0.404,-2.876
0.782,0.558,0.002,-1.282,0.447,-2.905
0.757,0.559,0.015,-1.340,0.497,-2.935
0.735,0.560,0.027,-1.399,0.551,-2.965
0.712,0.563,0.040,-1.460,0.608,-2.993
0.690,0.567,0.054,-1.522,0.668,-3.016

-0.316,1.114,0.571,0.194,0.367,0.165
-0.379,1.144,0.599,0.262,0.417,0.233
-0.454,1.172,0.628,0.344,0.468,0.325
-0.540,1.193,0.659,0.437,0.518,0.443
-0.635,1.214,0.690,0.545,0.563,0.590
-0.737,1.240,0.722,0.662,0.596,0.766
-0.837,1.275,0.754,0.791,0.606,0.975
-0.935,1.314,0.783,0.931,0.591,1.222
-1.029,1.353,0.811,1.081,0.549,1.510
-1.118,1.385,0.835,1.238,0.478,1.846
-1.199,1.404,0.853,1.396,0.376,2.233
-1.268,1.403,0.864,1.551,0.241,2.671
-1.323,1.384,0.865,1.697,0.072,3.164
-1.364,1.339,0.856,1.832,-0.122,3.701
-1.386,1.277,0.835,1.952,-0.339,4.270
-1.381,1.201,0.802,2.060,-0.557,4.846
-1.348,1.111,0.765,2.160,-0.753,5.418
-1.293,1.008,0.723,2.251,-0.925,5.972
-1.220,0.898,0.683,2.333,-1.070,6.502
-1.129,0.786,0.633,2.408,-1.188,6.996
-1.023,0.675,0.587,2.484,-1.270,7.446
-0.908,0.563,0.545,2.558,-1.327,7.850
-0.779,0.456,0.505,2.628,-1.376,8.204
-0.644,0.362,0.471,2.688,-1.426,8.503
-0.501,0.276,0.441,2.734,-1.478,8.744
0.100,0.022,0.312,2.689,-1.817,9.118
0.229,-0.015,0.275,2.625,-1.931,9.057
0.358,-0.033,0.231,2.550,-2.049,8.945
0.487,-0.044,0.182,2.468,-2.163,8.787
0.612,-0.046,0.131,2.387,-2.260,8.591
0.735,-0.038,0.078,2.305,-2.336,8.357
0.861,-0.014,0.026,2.225,-2.385,8.093
0.981,0.021,-0.027,2.149,-2.400,7.812
1.084,0.054,-0.080,2.077,-2.380,7.518
1.174,0.091,-0.133,2.008,-2.323,7.211
1.256,0.124,-0.180,1.941,-2.226,6.896
1.327,0.146,-0.224,1.873,-2.104,6.578
1.388,0.161,-0.263,1.802,-1.963,6.254
1.441,0.181,-0.295,1.724,-1.815,5.926
1.494,0.209,-0.321,1.638,-1.654,5.586
1.543,0.235,-0.339,1.545,-1.473,5.234
1.587,0.253,-0.356,1.447,-1.276,4.871
1.618,0.259,-0.367,1.347,-1.067,4.501
1.633,0.254,-0.372,1.242,-0.856,4.127
1.634,0.244,-0.370,1.131,-0.645,3.750
1.624,0.236,-0.365,1.016,-0.443,3.370
1.614,0.232,-0.354,0.895,-0.253,2.984
1.605,0.232,-0.342,0.769,-0.073,2.594
1.507,0.255,-0.264,0.222,0.585,0.924
1.482,0.271,-0.243,0.103,0.684,0.559
1.456,0.290,-0.220,-0.011,0.760,0.211
1.429,0.314,-0.199,-0.120,0.812,-0.115
1.398,0.339,-0.179,-0.225,0.838,-0.420
1.367,0.365,-0.161,-0.325,0.841,-0.702
1.337,0.389,-0.145,-0.420,0.825,-0.961
1.306,0.413,-0.130,-0.509,0.793,-1.194
1.276,0.434,-0.121,-0.593,0.750,-1.405
1.246,0.455,-0.115,-0.673,0.702,-1.594
1.214,0.474,-0.108,-0.747,0.652,-1.762
1.183,0.491,-0.103,-0.817,0.604,-1.911
1.152,0.508,-0.098,-0.884,0.561,-2.045
1.122,0.523,-0.092,-0.948,0.523,-2.165
1.093,0.534,-0.087,-1.011,0.491,-2.269
1.066,0.546,-0.079,-1.073,0.465,-2.360
1.038,0.555,-0.070,-1.132,0.447,-2.443
1.011,0.561,-0.062,-1.190,0.433,-2.518
0.984,0.568,-0.052,-1.247,0.424,-2.585
0.958,0.572,-0.042,-1.306,0.419,-2.646
0.860,0.595,0.014,-1.553,0.454,-2.862
0.826,0.598,0.031,-1.619,0.476,-2.897
0.797,0.579,0.049,-1.685,0.497,-2.940
0.776,0.576,0.065,-1.746,0.527,-2.989
0.755,0.585,0.085,-1.805,0.558,-3.032
0.731,0.588,0.102,-1.862,0.590,-3.068
0.709,0.592,0.119,-1.921,0.626,-3.098
0.683,0.601,0.140,-1.974,0.666,-3.122
0.657,0.604,0.160,-2.027,0.706,-3.144
0.631,0.599,0.178,-2.076,0.745,-3.167
0.608,0.596,0.197,-2.117,0.786,-3.193
0.587,0.597,0.216,-2.150,0.829,-3.220

-0.295,1.057,0.651,0.002,0.702,-0.114
-0.348,1.079,0.672,0.056,0.710,-0.028
-0.407,1.104,0.694,0.116,0.711,0.073
-0.472,1.131,0.716,0.182,0.703,0.189
-0.546,1.157,0.740,0.255,0.685,0.321
-0.627,1.179,0.764,0.335,0.660,0.473
-0.710,1.205,0.789,0.420,0.626,0.642
-0.793,1.236,0.820,0.514,0.589,0.835
-0.871,1.270,0.847,0.614,0.548,1.058
-0.945,1.303,0.871,0.722,0.496,1.321
-1.016,1.340,0.895,0.836,0.425,1.630
-1.086,1.370,0.915,0.956,0.329,1.991
-1.156,1.380,0.931,1.076,0.194,2.404
-1.212,1.370,0.940,1.195,0.016,2.868
-1.264,1.338,0.943,1.308,-0.194,3.384
-1.300,1.283,0.933,1.413,-0.434,3.934
-1.310,1.219,0.911,1.508,-0.693,4.506
-1.296,1.153,0.882,1.595,-0.947,5.067
-1.234,1.071,0.849,1.677,-1.178,5.605
-1.153,0.969,0.809,1.760,-1.361,6.128
-1.069,0.871,0.766,1.849,-1.475,6.622
-0.976,0.768,0.722,1.940,-1.540,7.079
-0.877,0.660,0.686,2.036,-1.587,7.500
-0.781,0.559,0.658,2.133,-1.627,7.876
-0.679,0.462,0.641,2.225,-1.673,8.193
-0.146,0.118,0.576,2.489,-2.002,8.992
-0.034,0.064,0.551,2.505,-2.121,9.046
0.071,0.020,0.521,2.507,-2.269,9.050
0.177,-0.016,0.486,2.497,-2.438,9.003
0.288,-0.046,0.444,2.479,-2.619,8.914
0.402,-0.067,0.395,2.458,-2.798,8.785
0.520,-0.080,0.343,2.437,-2.955,8.622
0.638,-0.082,0.288,2.417,-3.082,8.429
0.753,-0.074,0.229,2.399,-3.174,8.209
0.876,-0.048,0.169,2.384,-3.218,7.969
1.001,-0.019,0.107,2.373,-3.203,7.717
1.106,-0.007,0.049,2.363,-3.135,7.463
1.186,0.005,-0.005,2.349,-3.046,7.208
1.257,0.024,-0.052,2.325,-2.950,6.945
1.329,0.055,-0.094,2.290,-2.848,6.667
1.400,0.094,-0.134,2.246,-2.734,6.370
1.472,0.133,-0.169,2.189,-2.602,6.057
1.535,0.163,-0.202,2.123,-2.447,5.726
1.582,0.182,-0.231,2.044,-2.274,5.380
1.613,0.192,-0.256,1.954,-2.092,5.022
1.626,0.194,-0.268,1.887,-1.965,4.779
1.631,0.194,-0.286,1.773,-1.773,4.409
1.628,0.192,-0.297,1.645,-1.583,4.031
1.574,0.208,-0.308,0.899,-0.783,2.211
1.554,0.215,-0.303,0.727,-0.633,1.819
1.531,0.220,-0.295,0.557,-0.490,1.430
1.505,0.227,-0.284,0.391,-0.355,1.049
1.477,0.238,-0.272,0.230,-0.233,0.680
1.450,0.254,-0.258,0.078,-0.123,0.325
1.422,0.271,-0.245,-0.065,-0.029,-0.012
1.397,0.290,-0.233,-0.200,0.053,-0.324
1.372,0.311,-0.220,-0.325,0.122,-0.611
1.347,0.333,-0.208,-0.437,0.180,-0.872
1.321,0.354,-0.199,-0.536,0.229,-1.107
1.295,0.375,-0.188,-0.624,0.268,-1.318
1.269,0.397,-0.177,-0.699,0.301,-1.505
1.242,0.416,-0.166,-0.763,0.332,-1.672
1.215,0.434,-0.156,-0.817,0.360,-1.820
1.188,0.450,-0.143,-0.862,0.385,-1.950
1.161,0.463,-0.132,-0.901,0.409,-2.064
1.136,0.475,-0.120,-0.937,0.430,-2.161
1.111,0.485,-0.109,-0.968,0.448,-2.247
1.085,0.494,-0.096,-0.999,0.463,-2.320
0.980,0.529,-0.050,-1.140,0.484,-2.551
0.960,0.534,-0.038,-1.177,0.487,-2.592
0.940,0.537,-0.025,-1.216,0.493,-2.630
0.918,0.538,-0.016,-1.256,0.501,-2.667
0.896,0.538,-0.003,-1.297,0.513,-2.702
0.875,0.526,0.004,-1.336,0.529,-2.739
0.860,0.543,0.025,-1.372,0.552,-2.780
0.843,0.551,0.027,-1.412,0.569,-2.816
0.820,0.572,0.043,-1.455,0.596,-2.846
0.795,0.559,0.052,-1.499,0.617,-2.881
0.778,0.548,0.064,-1.538,0.646,-2.924
0.765,0.556,0.079,-1.571,0.680,-2.967

-0.317,1.067,0.586,0.362,0.020,0.362
-0.366,1.094,0.601,0.407,0.019,0.444
-0.421,1.126,0.621,0.453,0.016,0.533
-0.483,1.156,0.646,0.504,0.010,0.632
-0.551,1.183,0.670,0.558,0.005,0.744
-0.629,1.209,0.699,0.615,0.000,0.868
-0.710,1.235,0.729,0.682,-0.009,1.012
-0.796,1.259,0.764,0.760,-0.019,1.177
-0.890,1.276,0.796,0.849,-0.039,1.376
-0.985,1.289,0.826,0.951,-0.082,1.617
-1.076,1.299,0.848,1.070,-0.153,1.906
-1.161,1.306,0.864,1.203,-0.255,2.252
-1.235,1.311,0.875,1.348,-0.381,2.655
-1.302,1.305,0.879,1.498,-0.532,3.115
-1.355,1.291,0.878,1.650,-0.710,3.627
-1.389,1.265,0.869,1.793,-0.911,4.185
-1.402,1.207,0.851,1.924,-1.128,4.779
-1.401,1.124,0.820,2.042,-1.358,5.390
-1.369,1.022,0.779,2.148,-1.583,5.996
-1.316,0.911,0.736,2.248,-1.785,6.589
-1.244,0.792,0.692,2.337,-1.956,7.153
-1.156,0.669,0.651,2.418,-2.099,7.677
-1.060,0.539,0.609,2.490,-2.222,8.159
-0.952,0.407,0.559,2.557,-2.325,8.590
-0.303,0.076,0.381,2.805,-2.362,9.788
-0.142,0.036,0.350,2.828,-2.331,9.894
0.013,0.004,0.322,2.833,-2.309,9.933
0.164,-0.024,0.294,2.821,-2.308,9.913
0.307,-0.053,0.260,2.797,-2.331,9.838
0.440,-0.081,0.222,2.764,-2.376,9.710
0.568,-0.108,0.179,2.728,-2.438,9.534
0.692,-0.131,0.136,2.688,-2.504,9.317
0.814,-0.144,0.090,2.648,-2.564,9.060
0.941,-0.141,0.038,2.606,-2.606,8.769
1.066,-0.124,-0.016,2.565,-2.624,8.455
1.180,-0.095,-0.070,2.520,-2.613,8.119
1.282,-0.060,-0.124,2.473,-2.566,7.762
1.378,-0.017,-0.181,2.420,-2.479,7.387
1.471,0.027,-0.234,2.363,-2.349,6.993
1.558,0.065,-0.280,2.301,-2.171,6.589
1.629,0.091,-0.319,2.233,-1.952,6.178
1.680,0.108,-0.353,2.153,-1.710,5.760
1.715,0.121,-0.377,2.060,-1.458,5.334
1.735,0.131,-0.391,1.953,-1.203,4.903
1.748,0.137,-0.402,1.834,-0.950,4.462
1.750,0.138,-0.411,1.703,-0.709,4.015
1.660,0.125,-0.390,1.070,0.150,2.077
1.617,0.128,-0.371,0.914,0.294,1.646
1.573,0.141,-0.352,0.758,0.412,1.223
1.529,0.159,-0.331,0.599,0.503,0.810
1.488,0.182,-0.311,0.445,0.570,0.413
1.450,0.208,-0.290,0.291,0.617,0.035
1.414,0.235,-0.270,0.139,0.643,-0.317
1.382,0.263,-0.253,-0.009,0.649,-0.642
1.352,0.291,-0.238,-0.152,0.640,-0.934
1.325,0.322,-0.227,-0.288,0.613,-1.197
1.299,0.348,-0.215,-0.419,0.573,-1.430
1.274,0.374,-0.204,-0.543,0.521,-1.636
1.250,0.398,-0.194,-0.657,0.466,-1.816
1.226,0.422,-0.187,-0.764,0.410,-1.973
1.203,0.443,-0.180,-0.863,0.351,-2.111
1.181,0.461,-0.173,-0.954,0.296,-2.231
1.159,0.476,-0.164,-1.038,0.245,-2.335
1.137,0.488,-0.157,-1.115,0.199,-2.424
1.116,0.498,-0.149,-1.186,0.162,-2.504
1.094,0.507,-0.142,-1.252,0.135,-2.574
1.068,0.514,-0.134,-1.313,0.118,-2.636
0.951,0.530,-0.088,-1.541,0.134,-2.865
0.926,0.541,-0.074,-1.584,0.162,-2.916
0.895,0.539,-0.061,-1.631,0.196,-2.965
0.872,0.558,-0.038,-1.672,0.243,-3.010
0.834,0.563,-0.020,-1.722,0.296,-3.048
0.796,0.546,-0.006,-1.769,0.351,-3.095
0.768,0.546,0.013,-1.809,0.417,-3.145
0.738,0.555,0.033,-1.851,0.482,-3.188
0.706,0.563,0.054,-1.890,0.542,-3.222
0.676,0.575,0.075,-1.927,0.600,-3.248
0.645,0.595,0.096,-1.962,0.653,-3.263
0.613,0.605,0.117,-1.998,0.698,-3.268
0.584,0.610,0.138,-2.026,0.740,-3.269

-0.288,1.114,0.663,0.349,-0.017,0.748
-0.352,1.143,0.697,0.409,0.021,0.866
-0.427,1.176,0.731,0.473,0.059,1.003
-0.510,1.209,0.767,0.543,0.077,1.158
-0.595,1.234,0.802,0.624,0.066,1.339
-0.684,1.249,0.838,0.716,0.026,1.552
-0.775,1.251,0.869,0.826,-0.047,1.796
-0.858,1.240,0.895,0.952,-0.154,2.077
-0.928,1.221,0.917,1.097,-0.293,2.396
-0.984,1.195,0.933,1.255,-0.453,2.754
-1.024,1.162,0.945,1.423,-0.629,3.154
-1.050,1.125,0.947,1.592,-0.822,3.594
-1.062,1.089,0.943,1.760,-1.028,4.065
-1.061,1.041,0.932,1.919,-1.247,4.559
-1.050,0.987,0.909,2.064,-1.484,5.059
-1.024,0.927,0.876,2.197,-1.716,5.551
-0.986,0.859,0.839,2.318,-1.937,6.022
-0.934,0.776,0.798,2.429,-2.128,6.467
-0.872,0.683,0.754,2.533,-2.286,6.882
-0.810,0.582,0.711,2.633,-2.413,7.264
-0.741,0.493,0.657,2.735,-2.512,7.610
-0.656,0.411,0.609,2.845,-2.566,7.916
-0.566,0.337,0.565,2.955,-2.588,8.183
-0.472,0.277,0.527,3.062,-2.604,8.415
0.018,0.051,0.373,3.352,-2.733,8.946
0.139,0.002,0.329,3.370,-2.793,8.968
0.261,-0.038,0.282,3.368,-2.866,8.958
0.388,-0.067,0.230,3.349,-2.949,8.913
0.520,-0.081,0.175,3.315,-3.031,8.835
0.655,-0.083,0.115,3.267,-3.105,8.720
0.794,-0.075,0.051,3.210,-3.164,8.568
0.942,-0.060,-0.019,3.145,-3.195,8.379
1.102,-0.037,-0.089,3.077,-3.192,8.160
1.262,-0.007,-0.162,3.005,-3.149,7.922
1.409,0.030,-0.233,2.935,-3.058,7.671
1.540,0.064,-0.294,2.863,-2.910,7.410
1.645,0.095,-0.351,2.784,-2.725,7.140
1.724,0.121,-0.397,2.695,-2.521,6.857
1.786,0.142,-0.433,2.588,-2.307,6.555
1.832,0.162,-0.464,2.460,-2.082,6.230
1.865,0.180,-0.485,2.311,-1.844,5.879
1.889,0.188,-0.502,2.145,-1.602,5.501
1.891,0.179,-0.514,1.966,-1.358,5.099
1.874,0.157,-0.515,1.777,-1.114,4.673
1.837,0.127,-0.513,1.579,-0.884,4.233
1.787,0.096,-0.504,1.374,-0.673,3.777
1.736,0.071,-0.489,1.164,-0.481,3.309
1.528,0.014,-0.396,0.254,0.105,1.210
1.492,0.017,-0.374,0.064,0.196,0.734
1.461,0.029,-0.350,-0.115,0.264,0.276
1.435,0.050,-0.330,-0.282,0.314,-0.162
1.418,0.076,-0.311,-0.434,0.349,-0.567
1.405,0.105,-0.295,-0.574,0.374,-0.937
1.392,0.139,-0.281,-0.697,0.395,-1.267
1.377,0.172,-0.268,-0.806,0.413,-1.558
1.363,0.206,-0.254,-0.900,0.430,-1.809
1.347,0.236,-0.242,-0.980,0.451,-2.022
1.329,0.265,-0.229,-1.048,0.473,-2.200
1.305,0.290,-0.216,-1.105,0.493,-2.342
1.279,0.314,-0.201,-1.148,0.513,-2.456
1.246,0.335,-0.185,-1.183,0.531,-2.543
1.213,0.357,-0.171,-1.210,0.548,-2.608
1.176,0.378,-0.156,-1.231,0.564,-2.657
1.138,0.395,-0.142,-1.248,0.575,-2.691
1.099,0.401,-0.127,-1.261,0.580,-2.714
1.062,0.406,-0.118,-1.265,0.582,-2.731
1.031,0.424,-0.099,-1.269,0.580,-2.739
0.922,0.468,-0.047,-1.324,0.500,-2.706
0.908,0.475,-0.038,-1.344,0.469,-2.699
0.895,0.483,-0.033,-1.362,0.437,-2.687
0.880,0.495,-0.025,-1.378,0.412,-2.673
0.863,0.503,-0.017,-1.397,0.393,-2.658
0.845,0.500,-0.010,-1.418,0.378,-2.650
0.830,0.492,-0.002,-1.440,0.371,-2.652
0.817,0.485,0.005,-1.463,0.370,-2.664
0.806,0.477,0.011,-1.488,0.378,-2.685
0.796,0.474,0.018,-1.513,0.393,-2.714
0.786,0.472,0.026,-1.542,0.417,-2.747
0.777,0.472,0.032,-1.573,0.452,-2.782
0.766,0.476,0.043,-1.606,0.501,-2.820

-0.282,1.029,0.672,-0.093,0.228,0.056
-0.346,1.073,0.697,-0.069,0.272,0.100
-0.421,1.115,0.729,-0.038,0.318,0.155
-0.505,1.152,0.766,0.001,0.362,0.223
-0.601,1.183,0.808,0.050,0.400,0.312
-0.704,1.217,0.856,0.111,0.418,0.428
-0.807,1.257,0.908,0.185,0.410,0.575
-0.910,1.298,0.965,0.275,0.375,0.762
-1.014,1.339,1.024,0.380,0.308,0.999
-1.121,1.380,1.080,0.500,0.197,1.290
-1.223,1.418,1.131,0.637,0.036,1.641
-1.318,1.445,1.180,0.790,-0.170,2.054
-1.407,1.457,1.216,0.958,-0.415,2.531
-1.490,1.453,1.245,1.141,-0.693,3.070
-1.560,1.431,1.259,1.335,-0.991,3.668
-1.610,1.380,1.261,1.541,-1.292,4.314
-1.640,1.309,1.252,1.756,-1.596,4.997
-1.644,1.217,1.230,1.977,-1.888,5.698
-1.623,1.102,1.200,2.202,-2.156,6.400
-1.582,0.967,1.166,2.426,-2.395,7.089
-1.522,0.808,1.126,2.648,-2.614,7.746
-1.443,0.632,1.084,2.863,-2.830,8.366
-1.341,0.446,1.033,3.071,-3.053,8.937
-1.221,0.263,0.974,3.274,-3.284,9.450
-1.074,0.104,0.896,3.478,-3.508,9.890
-0.237,-0.417,0.547,4.311,-4.031,10.828
-0.025,-0.483,0.463,4.446,-4.081,10.831
0.194,-0.524,0.381,4.547,-4.120,10.760
0.409,-0.542,0.297,4.613,-4.149,10.625
0.611,-0.550,0.215,4.643,-4.181,10.429
0.802,-0.548,0.133,4.641,-4.225,10.180
0.984,-0.533,0.049,4.614,-4.271,9.885
1.157,-0.497,-0.033,4.562,-4.299,9.550
1.318,-0.433,-0.116,4.485,-4.285,9.180
1.454,-0.360,-0.197,4.382,-4.215,8.780
1.559,-0.291,-0.272,4.251,-4.094,8.352
1.640,-0.235,-0.342,4.088,-3.929,7.901
1.697,-0.163,-0.412,3.893,-3.730,7.431
1.742,-0.087,-0.477,3.672,-3.506,6.946
1.779,-0.028,-0.533,3.430,-3.235,6.448
1.804,0.011,-0.585,3.171,-2.911,5.938
1.815,0.035,-0.628,2.900,-2.564,5.418
1.821,0.048,-0.660,2.620,-2.197,4.890
1.817,0.058,-0.684,2.336,-1.820,4.359
1.800,0.060,-0.696,2.053,-1.443,3.824
1.628,0.049,-0.636,0.860,-0.066,1.502
1.592,0.060,-0.599,0.601,0.169,0.985
1.551,0.071,-0.561,0.353,0.369,0.494
1.510,0.091,-0.520,0.114,0.530,0.032
1.470,0.117,-0.479,-0.117,0.657,-0.394
1.432,0.149,-0.439,-0.339,0.755,-0.782
1.392,0.182,-0.403,-0.551,0.826,-1.133
1.355,0.217,-0.367,-0.751,0.869,-1.447
1.319,0.250,-0.336,-0.934,0.893,-1.725
1.284,0.281,-0.306,-1.100,0.900,-1.968
1.251,0.311,-0.282,-1.244,0.895,-2.175
1.223,0.340,-0.258,-1.363,0.883,-2.347
1.192,0.366,-0.236,-1.458,0.867,-2.482
1.159,0.393,-0.216,-1.528,0.847,-2.585
1.125,0.419,-0.198,-1.575,0.826,-2.661
1.089,0.441,-0.179,-1.602,0.800,-2.713
1.054,0.462,-0.158,-1.609,0.774,-2.744
1.020,0.478,-0.141,-1.604,0.744,-2.755
0.987,0.491,-0.120,-1.588,0.714,-2.753
0.955,0.503,-0.103,-1.565,0.684,-2.740
0.925,0.514,-0.086,-1.539,0.657,-2.720
0.806,0.549,-0.005,-1.437,0.549,-2.665
0.790,0.558,0.001,-1.435,0.517,-2.671
0.769,0.579,0.013,-1.442,0.490,-2.677
0.744,0.561,0.020,-1.461,0.458,-2.692
0.730,0.542,0.028,-1.480,0.432,-2.724
0.724,0.545,0.038,-1.503,0.417,-2.758
0.714,0.551,0.045,-1.529,0.412,-2.790
0.701,0.557,0.058,-1.556,0.426,-2.819
0.684,0.564,0.072,-1.587,0.455,-2.845
0.663,0.580,0.087,-1.626,0.495,-2.867
0.644,0.588,0.102,-1.671,0.544,-2.894
0.625,0.589,0.115,-1.719,0.601,-2.927
0.615,0.592,0.126,-1.750,0.644,-2.952
0.599,0.598,0.145,-1.795,0.715,-2.994

-0.331,1.042,0.589,0.236,-0.059,0.235
-0.362,1.060,0.603,0.263,-0.066,0.292
-0.396,1.082,0.616,0.293,-0.074,0.354
-0.436,1.106,0.632,0.325,-0.084,0.426
-0.480,1.131,0.647,0.360,-0.099,0.507
-0.525,1.159,0.665,0.399,-0.121,0.599
-0.574,1.187,0.683,0.444,-0.150,0.706
-0.622,1.215,0.702,0.492,-0.186,0.827
-0.672,1.240,0.720,0.545,-0.229,0.967
-0.728,1.262,0.736,0.604,-0.285,1.131
-0.783,1.283,0.751,0.672,-0.357,1.318
-0.834,1.301,0.767,0.746,-0.443,1.529
-0.885,1.311,0.781,0.828,-0.544,1.768
-0.933,1.315,0.793,0.918,-0.661,2.034
-0.979,1.318,0.802,1.017,-0.791,2.324
-1.021,1.317,0.806,1.125,-0.933,2.640
-1.057,1.314,0.807,1.239,-1.089,2.979
-1.087,1.306,0.802,1.358,-1.258,3.342
-1.110,1.289,0.792,1.479,-1.444,3.729
-1.129,1.253,0.775,1.604,-1.638,4.139
-1.142,1.195,0.751,1.725,-1.840,4.566
-1.149,1.120,0.721,1.844,-2.043,5.002
-1.143,1.032,0.685,1.958,-2.241,5.438
-0.937,0.606,0.514,2.356,-2.852,7.163
-0.857,0.516,0.476,2.418,-2.919,7.490
-0.775,0.436,0.439,2.466,-2.962,7.777
-0.688,0.356,0.401,2.500,-2.986,8.022
-0.597,0.287,0.356,2.524,-2.994,8.225
-0.499,0.232,0.320,2.546,-2.964,8.385
-0.402,0.179,0.285,2.561,-2.899,8.507
-0.308,0.130,0.251,2.566,-2.815,8.596
-0.217,0.090,0.221,2.561,-2.725,8.653
-0.125,0.060,0.193,2.543,-2.641,8.681
-0.032,0.035,0.171,2.514,-2.571,8.682
0.067,0.014,0.149,2.470,-2.514,8.657
0.167,0.001,0.130,2.414,-2.465,8.611
0.268,-0.005,0.111,2.342,-2.421,8.540
0.365,-0.002,0.092,2.259,-2.377,8.446
0.461,0.004,0.074,2.167,-2.334,8.325
0.549,0.013,0.056,2.066,-2.284,8.180
0.632,0.026,0.037,1.960,-2.234,8.008
0.713,0.039,0.015,1.855,-2.185,7.814
0.794,0.048,-0.005,1.751,-2.133,7.596
0.873,0.056,-0.024,1.652,-2.082,7.362
0.949,0.066,-0.045,1.558,-2.021,7.111
1.027,0.082,-0.063,1.472,-1.945,6.846
1.106,0.100,-0.078,1.392,-1.854,6.574
1.316,0.141,-0.122,1.081,-1.446,5.338
1.349,0.142,-0.127,1.003,-1.404,5.026
1.386,0.142,-0.130,0.922,-1.377,4.704
1.426,0.143,-0.136,0.843,-1.362,4.372
1.461,0.141,-0.145,0.767,-1.347,4.032
1.488,0.138,-0.155,0.695,-1.331,3.689
1.510,0.143,-0.165,0.623,-1.309,3.344
1.529,0.152,-0.175,0.550,-1.272,3.001
1.542,0.161,-0.186,0.476,-1.215,2.665
1.545,0.172,-0.195,0.397,-1.143,2.336
1.546,0.186,-0.202,0.314,-1.058,2.018
1.550,0.206,-0.206,0.228,-0.958,1.709
1.551,0.225,-0.210,0.140,-0.836,1.412
1.545,0.239,-0.209,0.059,-0.697,1.130
1.534,0.252,-0.207,-0.019,-0.549,0.864
1.517,0.266,-0.200,-0.089,-0.394,0.611
1.497,0.282,-0.187,-0.151,-0.234,0.372
1.475,0.299,-0.170,-0.204,-0.079,0.147
1.450,0.317,-0.150,-0.247,0.069,-0.064
1.423,0.334,-0.128,-0.281,0.203,-0.260
1.395,0.350,-0.107,-0.304,0.322,-0.441
1.367,0.365,-0.084,-0.320,0.418,-0.606
1.263,0.417,-0.026,-0.317,0.582,-1.169
1.224,0.438,-0.011,-0.321,0.579,-1.289
1.201,0.422,-0.008,-0.332,0.562,-1.379
1.187,0.425,-0.004,-0.348,0.543,-1.470
1.175,0.430,-0.004,-0.372,0.515,-1.551
1.163,0.437,-0.005,-0.401,0.484,-1.626
1.151,0.443,-0.007,-0.435,0.458,-1.695
1.134,0.439,-0.005,-0.477,0.435,-1.759
1.118,0.429,-0.007,-0.528,0.413,-1.827
1.110,0.420,-0.010,-0.585,0.392,-1.905
1.104,0.413,-0.011,-0.652,0.372,-1.992

-0.327,1.053,0.612,0.226,0.259,0.128
-0.386,1.094,0.640,0.281,0.332,0.153
-0.454,1.141,0.675,0.350,0.414,0.184
-0.531,1.190,0.712,0.431,0.496,0.227
-0.613,1.245,0.753,0.528,0.576,0.284
-0.703,1.302,0.801,0.637,0.647,0.368
-0.801,1.355,0.847,0.762,0.707,0.485
-0.907,1.408,0.891,0.902,0.751,0.642
-1.020,1.454,0.936,1.058,0.777,0.844
-1.134,1.496,0.976,1.228,0.769,1.100
-1.244,1.538,1.010,1.416,0.716,1.413
-1.344,1.570,1.040,1.619,0.606,1.789
-1.436,1.588,1.065,1.833,0.447,2.225
-1.512,1.586,1.080,2.053,0.245,2.720
-1.563,1.572,1.088,2.272,-0.002,3.268
-1.596,1.535,1.090,2.483,-0.284,3.861
-1.614,1.456,1.073,2.680,-0.579,4.483
-1.638,1.340,1.046,2.857,-0.877,5.113
-1.645,1.178,1.002,3.019,-1.151,5.730
-1.648,0.989,0.950,3.171,-1.377,6.341
-1.608,0.794,0.897,3.310,-1.565,6.941
-1.527,0.620,0.844,3.431,-1.735,7.529
-1.424,0.478,0.792,3.536,-1.910,8.092
-1.308,0.359,0.739,3.623,-2.099,8.612
-1.182,0.253,0.688,3.689,-2.304,9.073
-1.049,0.152,0.635,3.734,-2.526,9.467
-0.419,-0.212,0.359,3.759,-3.449,10.353
-0.273,-0.266,0.297,3.739,-3.607,10.380
-0.131,-0.302,0.235,3.704,-3.743,10.353
0.009,-0.319,0.174,3.650,-3.859,10.274
0.141,-0.325,0.112,3.578,-3.958,10.151
0.271,-0.325,0.048,3.487,-4.046,9.990
0.401,-0.325,-0.013,3.381,-4.130,9.795
0.529,-0.325,-0.074,3.266,-4.208,9.577
0.654,-0.316,-0.134,3.145,-4.256,9.339
0.782,-0.292,-0.198,3.019,-4.252,9.086
0.918,-0.255,-0.264,2.893,-4.183,8.832
1.037,-0.216,-0.321,2.756,-4.061,8.579
1.134,-0.171,-0.386,2.604,-3.927,8.324
1.224,-0.124,-0.442,2.438,-3.779,8.062
1.305,-0.076,-0.494,2.259,-3.608,7.789
1.387,-0.035,-0.541,2.077,-3.393,7.497
1.458,-0.014,-0.581,1.895,-3.131,7.192
1.519,-0.012,-0.615,1.723,-2.837,6.874
1.568,-0.021,-0.638,1.559,-2.524,6.549
1.664,-0.026,-0.667,0.940,-1.134,4.987
1.677,-0.029,-0.656,0.810,-0.847,4.583
1.683,-0.031,-0.642,0.683,-0.581,4.164
1.683,-0.029,-0.624,0.557,-0.341,3.729
1.678,-0.022,-0.602,0.430,-0.127,3.279
1.670,-0.017,-0.576,0.302,0.062,2.816
1.660,-0.009,-0.550,0.173,0.221,2.344
1.643,0.004,-0.522,0.044,0.352,1.863
1.631,0.021,-0.492,-0.086,0.455,1.379
1.622,0.046,-0.467,-0.215,0.535,0.901
1.612,0.073,-0.443,-0.341,0.604,0.440
1.597,0.104,-0.423,-0.459,0.666,0.003
1.576,0.136,-0.407,-0.566,0.718,-0.400
1.550,0.168,-0.395,-0.663,0.763,-0.764
1.518,0.198,-0.383,-0.747,0.802,-1.089
1.481,0.226,-0.376,-0.818,0.840,-1.374
1.442,0.253,-0.368,-0.878,0.879,-1.621
1.400,0.280,-0.358,-0.928,0.923,-1.835
1.360,0.306,-0.348,-0.970,0.976,-2.019
1.320,0.332,-0.335,-1.005,1.038,-2.177
1.133,0.413,-0.251,-1.150,1.324,-2.623
1.089,0.424,-0.226,-1.194,1.378,-2.690
1.044,0.422,-0.211,-1.241,1.426,-2.752
1.007,0.444,-0.179,-1.289,1.472,-2.815
0.970,0.458,-0.160,-1.349,1.502,-2.869
0.934,0.492,-0.133,-1.416,1.524,-2.912
0.888,0.488,-0.111,-1.492,1.532,-2.947
0.849,0.478,-0.088,-1.564,1.532,-2.987
0.820,0.489,-0.061,-1.634,1.522,-3.026
0.793,0.502,-0.038,-1.699,1.496,-3.055
0.770,0.516,-0.018,-1.752,1.468,-3.073
0.746,0.534,0.008,-1.795,1.444,-3.080
0.718,0.546,0.033,-1.832,1.426,-3.077
0.691,0.549,0.056,-1.863,1.412,-3.069
0.666,0.553,0.079,-1.884,1.405,-3.062

-0.320,1.099,0.601,0.664,0.027,0.259
-0.353,1.133,0.616,0.731,0.062,0.296
-0.389,1.169,0.631,0.802,0.097,0.346
-0.431,1.201,0.645,0.875,0.127,0.416
-0.483,1.229,0.659,0.949,0.140,0.510
-0.534,1.254,0.667,1.026,0.138,0.628
-0.588,1.277,0.678,1.104,0.121,0.775
-0.642,1.298,0.687,1.179,0.094,0.951
-0.699,1.320,0.695,1.255,0.059,1.158
-0.753,1.343,0.702,1.328,0.017,1.394
-0.810,1.363,0.708,1.401,-0.031,1.659
-0.865,1.382,0.714,1.472,-0.084,1.950
-0.915,1.399,0.720,1.543,-0.142,2.266
-0.962,1.415,0.728,1.615,-0.205,2.608
-1.008,1.420,0.736,1.691,-0.278,2.976
-1.051,1.410,0.738,1.768,-0.363,3.362
-1.083,1.376,0.735,1.847,-0.462,3.768
-1.112,1.324,0.733,1.929,-0.575,4.195
-1.137,1.259,0.726,2.011,-0.693,4.634
-1.154,1.182,0.714,2.091,-0.815,5.077
-1.157,1.098,0.700,2.167,-0.946,5.520
-1.144,1.008,0.684,2.236,-1.089,5.958
-1.115,0.914,0.666,2.298,-1.240,6.381
-1.073,0.821,0.647,2.350,-1.396,6.789
-1.022,0.728,0.624,2.390,-1.555,7.173
-0.697,0.327,0.513,2.471,-2.271,8.482
-0.608,0.241,0.472,2.481,-2.435,8.685
-0.513,0.163,0.432,2.489,-2.595,8.849
-0.413,0.094,0.384,2.496,-2.743,8.974
-0.300,0.042,0.323,2.507,-2.866,9.053
-0.178,0.002,0.265,2.523,-2.942,9.095
-0.053,-0.035,0.205,2.533,-2.975,9.102
0.068,-0.060,0.147,2.531,-2.969,9.078
0.179,-0.073,0.092,2.512,-2.929,9.021
0.286,-0.078,0.037,2.471,-2.869,8.931
0.394,-0.081,-0.011,2.412,-2.800,8.814
0.502,-0.084,-0.062,2.332,-2.731,8.670
0.612,-0.088,-0.110,2.235,-2.664,8.504
0.718,-0.091,-0.155,2.124,-2.604,8.317
0.825,-0.092,-0.198,2.002,-2.547,8.104
0.934,-0.090,-0.240,1.871,-2.485,7.866
1.041,-0.080,-0.282,1.731,-2.407,7.600
1.145,-0.068,-0.320,1.586,-2.313,7.305
1.245,-0.055,-0.352,1.436,-2.195,6.979
1.347,-0.038,-0.378,1.285,-2.058,6.626
1.438,-0.024,-0.403,1.136,-1.903,6.250
1.690,0.011,-0.439,0.562,-1.112,4.428
1.719,0.017,-0.431,0.449,-0.944,3.983
1.743,0.031,-0.420,0.342,-0.794,3.534
1.760,0.051,-0.404,0.241,-0.658,3.084
1.768,0.063,-0.386,0.147,-0.527,2.637
1.766,0.073,-0.368,0.061,-0.402,2.199
1.757,0.087,-0.350,-0.019,-0.282,1.775
1.741,0.106,-0.332,-0.093,-0.160,1.370
1.718,0.128,-0.314,-0.159,-0.037,0.985
1.686,0.150,-0.296,-0.218,0.085,0.624
1.649,0.172,-0.280,-0.272,0.203,0.288
1.603,0.193,-0.264,-0.318,0.313,-0.021
1.555,0.215,-0.248,-0.359,0.408,-0.305
1.507,0.238,-0.233,-0.391,0.485,-0.563
1.462,0.259,-0.223,-0.415,0.546,-0.795
1.418,0.280,-0.211,-0.434,0.594,-1.004
1.377,0.297,-0.200,-0.449,0.630,-1.189
1.337,0.314,-0.192,-0.462,0.662,-1.354
1.304,0.332,-0.182,-0.475,0.691,-1.501
1.274,0.351,-0.174,-0.491,0.718,-1.630
1.151,0.403,-0.135,-0.628,0.812,-2.084
1.118,0.429,-0.124,-0.689,0.825,-2.163
1.076,0.414,-0.113,-0.762,0.827,-2.238
1.045,0.406,-0.099,-0.840,0.826,-2.321
1.020,0.416,-0.082,-0.921,0.822,-2.401
0.998,0.426,-0.069,-1.006,0.812,-2.475
0.973,0.440,-0.057,-1.086,0.810,-2.543
0.945,0.453,-0.042,-1.160,0.817,-2.605
0.912,0.460,-0.026,-1.233,0.830,-2.662
0.881,0.463,-0.008,-1.303,0.845,-2.718
0.853,0.467,0.011,-1.368,0.860,-2.775
0.827,0.472,0.029,-1.428,0.872,-2.834
0.803,0.475,0.049,-1.482,0.882,-2.890
0.779,0.483,0.070,-1.532,0.895,-2.945

-0.289,1.122,0.553,0.329,0.085,0.565
-0.330,1.144,0.560,0.366,0.079,0.636
-0.370,1.167,0.565,0.403,0.071,0.719
-0.410,1.194,0.572,0.441,0.060,0.815
-0.447,1.222,0.580,0.477,0.048,0.927
-0.483,1.249,0.591,0.511,0.037,1.057
-0.521,1.277,0.601,0.544,0.027,1.206
-0.559,1.303,0.613,0.577,0.018,1.377
-0.597,1.329,0.628,0.611,0.006,1.574
-0.634,1.350,0.640,0.646,-0.012,1.800
-0.674,1.365,0.650,0.683,-0.042,2.054
-0.717,1.373,0.659,0.726,-0.089,2.340
-0.758,1.374,0.666,0.774,-0.161,2.656
-0.796,1.362,0.672,0.826,-0.259,3.002
-0.832,1.335,0.675,0.885,-0.386,3.376
-0.860,1.296,0.670,0.950,-0.544,3.771
-0.879,1.244,0.660,1.022,-0.725,4.180
-0.881,1.181,0.646,1.096,-0.915,4.595
-0.869,1.110,0.630,1.173,-1.104,5.010
-0.846,1.038,0.606,1.248,-1.285,5.416
-0.808,0.960,0.581,1.319,-1.456,5.804
-0.761,0.878,0.557,1.382,-1.613,6.173
-0.708,0.795,0.536,1.438,-1.756,6.518
-0.648,0.713,0.511,1.486,-1.890,6.839
-0.583,0.630,0.487,1.524,-2.018,7.132
-0.257,0.300,0.370,1.593,-2.487,8.029
-0.170,0.250,0.341,1.596,-2.541,8.135
-0.084,0.204,0.319,1.596,-2.562,8.207
0.000,0.164,0.295,1.590,-2.562,8.247
0.082,0.131,0.272,1.575,-2.555,8.253
0.166,0.099,0.248,1.553,-2.548,8.232
0.255,0.070,0.228,1.522,-2.540,8.186
0.341,0.045,0.209,1.482,-2.538,8.116
0.430,0.028,0.187,1.437,-2.545,8.023
0.523,0.017,0.163,1.383,-2.562,7.906
0.617,0.012,0.140,1.325,-2.585,7.765
0.711,0.011,0.114,1.260,-2.611,7.599
0.808,0.014,0.087,1.190,-2.634,7.403
0.903,0.020,0.056,1.115,-2.646,7.179
0.998,0.027,0.030,1.039,-2.638,6.928
1.095,0.037,0.004,0.958,-2.606,6.651
1.190,0.052,-0.021,0.878,-2.550,6.350
1.277,0.069,-0.043,0.800,-2.467,6.026
1.356,0.087,-0.064,0.724,-2.360,5.679
1.429,0.111,-0.082,0.649,-2.231,5.310
1.489,0.132,-0.099,0.577,-2.079,4.923
1.536,0.150,-0.111,0.508,-1.911,4.521
1.574,0.165,-0.118,0.441,-1.736,4.107
1.600,0.178,-0.123,0.379,-1.557,3.685
1.616,0.191,-0.124,0.320,-1.382,3.262
1.623,0.208,-0.122,0.266,-1.219,2.840
1.565,0.288,-0.089,0.072,-0.615,1.143
1.535,0.308,-0.077,0.036,-0.497,0.802
1.497,0.328,-0.064,0.000,-0.384,0.486
1.456,0.348,-0.048,-0.034,-0.277,0.195
1.413,0.368,-0.029,-0.067,-0.178,-0.073
1.367,0.388,-0.011,-0.100,-0.089,-0.318
1.319,0.406,0.010,-0.132,-0.012,-0.540
1.270,0.424,0.028,-0.164,0.052,-0.741
1.219,0.441,0.042,-0.193,0.100,-0.922
1.169,0.456,0.055,-0.220,0.131,-1.083
1.121,0.471,0.064,-0.243,0.142,-1.227
1.081,0.485,0.073,-0.262,0.134,-1.353
1.044,0.498,0.078,-0.274,0.110,-1.461
1.013,0.510,0.078,-0.279,0.073,-1.553
0.988,0.520,0.074,-0.279,0.030,-1.629
0.967,0.529,0.069,-0.274,-0.019,-1.692
0.951,0.541,0.062,-0.264,-0.066,-1.744
0.936,0.540,0.054,-0.254,-0.112,-1.786
0.930,0.543,0.037,-0.237,-0.149,-1.826
0.920,0.558,0.030,-0.229,-0.176,-1.861
0.921,0.584,0.023,-0.229,-0.200,-1.891
0.900,0.563,-0.023,-0.368,-0.265,-2.036
0.901,0.562,-0.035,-0.417,-0.271,-2.079
0.899,0.564,-0.043,-0.468,-0.262,-2.128
0.890,0.559,-0.051,-0.525,-0.239,-2.184
0.882,0.548,-0.058,-0.586,-0.205,-2.252
0.876,0.538,-0.062,-0.652,-0.159,-2.335
0.867,0.531,-0.062,-0.722,-0.104,-2.430
0.855,0.524,-0.061,-0.794,-0.044,-2.535

-0.355,1.084,0.555,0.265,0.260,-0.312
-0.403,1.122,0.570,0.294,0.289,-0.275
-0.459,1.163,0.589,0.327,0.331,-0.223
-0.524,1.212,0.609,0.366,0.386,-0.155
-0.595,1.269,0.634,0.414,0.452,-0.068
-0.678,1.330,0.664,0.468,0.528,0.042
-0.776,1.391,0.693,0.532,0.600,0.179
-0.889,1.446,0.725,0.604,0.653,0.348
-1.015,1.495,0.754,0.687,0.673,0.553
-1.141,1.537,0.777,0.781,0.645,0.798
-1.260,1.573,0.799,0.885,0.573,1.089
-1.367,1.602,0.819,0.998,0.461,1.427
-1.468,1.625,0.835,1.115,0.314,1.813
-1.557,1.636,0.845,1.231,0.145,2.246
-1.633,1.630,0.847,1.346,-0.038,2.721
-1.694,1.609,0.844,1.455,-0.226,3.244
-1.738,1.568,0.833,1.559,-0.416,3.814
-1.762,1.511,0.815,1.659,-0.608,4.435
-1.765,1.423,0.791,1.755,-0.796,5.109
-1.765,1.306,0.752,1.845,-0.983,5.825
-1.745,1.170,0.708,1.934,-1.167,6.553
-1.698,1.024,0.660,2.015,-1.347,7.270
-1.620,0.869,0.617,2.087,-1.522,7.951
-1.519,0.705,0.575,2.147,-1.690,8.578
-1.397,0.537,0.535,2.191,-1.862,9.139
-0.723,-0.145,0.365,2.190,-2.630,10.655
-0.547,-0.257,0.311,2.155,-2.810,10.790
-0.349,-0.342,0.257,2.118,-2.967,10.850
-0.151,-0.405,0.200,2.072,-3.093,10.841
0.049,-0.449,0.138,2.016,-3.192,10.766
0.254,-0.471,0.072,1.946,-3.255,10.627
0.447,-0.472,0.007,1.860,-3.279,10.433
0.638,-0.452,-0.058,1.756,-3.253,10.183
0.820,-0.404,-0.126,1.634,-3.168,9.881
0.996,-0.342,-0.192,1.499,-3.003,9.537
1.155,-0.301,-0.251,1.354,-2.745,9.154
1.278,-0.274,-0.302,1.195,-2.437,8.747
1.375,-0.244,-0.341,1.025,-2.125,8.308
1.466,-0.204,-0.363,0.848,-1.827,7.830
1.551,-0.164,-0.373,0.674,-1.551,7.310
1.627,-0.141,-0.368,0.510,-1.294,6.754
1.689,-0.135,-0.351,0.361,-1.058,6.163
1.737,-0.130,-0.326,0.228,-0.843,5.546
1.852,-0.015,-0.194,-0.168,-0.094,2.796
1.848,0.015,-0.163,-0.223,0.049,2.216
1.824,0.043,-0.133,-0.267,0.181,1.677
1.786,0.073,-0.103,-0.301,0.301,1.183
1.740,0.102,-0.077,-0.328,0.410,0.735
1.685,0.133,-0.055,-0.346,0.507,0.332
1.626,0.163,-0.036,-0.355,0.597,-0.029
1.565,0.192,-0.018,-0.359,0.678,-0.349
1.503,0.219,-0.005,-0.354,0.750,-0.632
1.441,0.243,0.005,-0.347,0.815,-0.880
1.381,0.268,0.015,-0.339,0.875,-1.096
1.325,0.294,0.023,-0.335,0.928,-1.285
1.275,0.323,0.029,-0.336,0.973,-1.446
1.230,0.352,0.036,-0.347,1.007,-1.587
1.189,0.381,0.046,-0.367,1.029,-1.708
1.152,0.407,0.057,-0.398,1.041,-1.812
1.120,0.428,0.064,-0.437,1.043,-1.904
1.090,0.445,0.074,-0.486,1.035,-1.985
1.064,0.460,0.086,-0.540,1.021,-2.056
1.038,0.470,0.098,-0.598,1.003,-2.122
1.014,0.477,0.112,-0.660,0.981,-2.187
0.992,0.483,0.125,-0.724,0.959,-2.251
0.893,0.508,0.196,-0.995,0.867,-2.546
0.867,0.511,0.213,-1.054,0.844,-2.617
0.842,0.515,0.224,-1.106,0.825,-2.688
0.817,0.533,0.248,-1.154,0.812,-2.758
0.794,0.536,0.255,-1.199,0.795,-2.824
0.764,0.560,0.271,-1.237,0.796,-2.880
0.730,0.551,0.283,-1.273,0.797,-2.936
0.707,0.548,0.296,-1.295,0.811,-2.996
0.689,0.562,0.313,-1.308,0.834,-3.048
0.664,0.578,0.332,-1.313,0.863,-3.087
0.643,0.598,0.348,-1.312,0.896,-3.117
0.617,0.624,0.362,-1.305,0.940,-3.135
0.586,0.647,0.380,-1.292,0.987,-3.142
0.553,0.659,0.398,-1.276,1.032,-3.143
0.525,0.667,0.416,-1.253,1.076,-3.137

-0.408,1.099,0.471,-0.361,-0.055,0.327
-0.440,1.128,0.482,-0.375,-0.032,0.395
-0.477,1.158,0.497,-0.383,-0.003,0.474
-0.519,1.185,0.515,-0.385,0.027,0.564
-0.568,1.212,0.538,-0.379,0.056,0.669
-0.622,1.240,0.559,-0.362,0.082,0.790
-0.682,1.269,0.583,-0.334,0.101,0.927
-0.745,1.302,0.614,-0.296,0.109,1.086
-0.812,1.336,0.643,-0.249,0.103,1.267
-0.881,1.370,0.672,-0.192,0.079,1.475
-0.952,1.403,0.702,-0.127,0.028,1.710
-1.026,1.433,0.730,-0.051,-0.050,1.977
-1.101,1.458,0.754,0.032,-0.153,2.275
-1.173,1.478,0.777,0.121,-0.281,2.608
-1.244,1.485,0.796,0.213,-0.432,2.978
-1.313,1.477,0.809,0.306,-0.607,3.381
-1.377,1.453,0.817,0.397,-0.802,3.817
-1.434,1.416,0.820,0.486,-1.013,4.279
-1.475,1.366,0.812,0.574,-1.233,4.762
-1.503,1.300,0.798,0.660,-1.459,5.264
-1.516,1.217,0.775,0.746,-1.689,5.779
-1.521,1.116,0.745,0.832,-1.921,6.301
-1.365,0.586,0.557,1.174,-2.826,8.487
-1.285,0.451,0.501,1.236,-3.005,8.937
-1.191,0.316,0.442,1.291,-3.174,9.353
-1.086,0.184,0.384,1.337,-3.331,9.729
-0.966,0.058,0.325,1.373,-3.472,10.058
-0.839,-0.065,0.275,1.395,-3.589,10.337
-0.699,-0.184,0.224,1.403,-3.677,10.560
-0.545,-0.292,0.177,1.390,-3.730,10.732
-0.369,-0.382,0.131,1.358,-3.746,10.849
-0.175,-0.449,0.083,1.307,-3.714,10.911
0.029,-0.490,0.037,1.239,-3.629,10.919
0.248,-0.502,-0.004,1.157,-3.492,10.870
0.474,-0.483,-0.047,1.065,-3.301,10.767
0.694,-0.424,-0.092,0.977,-3.047,10.607
0.905,-0.368,-0.128,0.897,-2.695,10.388
1.093,-0.361,-0.138,0.826,-2.249,10.124
1.251,-0.371,-0.142,0.750,-1.780,9.829
1.385,-0.351,-0.143,0.676,-1.362,9.493
1.805,-0.296,-0.014,0.437,-0.348,7.298
1.876,-0.290,0.023,0.393,-0.247,6.642
1.938,-0.279,0.055,0.350,-0.183,5.944
1.987,-0.265,0.081,0.311,-0.151,5.218
2.021,-0.250,0.098,0.270,-0.147,4.479
2.039,-0.225,0.106,0.233,-0.163,3.741
2.046,-0.192,0.108,0.196,-0.184,3.018
2.046,-0.159,0.105,0.158,-0.193,2.326
2.029,-0.127,0.098,0.120,-0.173,1.680
2.000,-0.091,0.094,0.084,-0.127,1.088
1.960,-0.053,0.091,0.051,-0.052,0.551
1.908,-0.011,0.091,0.022,0.043,0.073
1.845,0.029,0.096,-0.002,0.149,-0.350
1.778,0.067,0.104,-0.020,0.259,-0.722
1.705,0.103,0.115,-0.033,0.364,-1.044
1.630,0.133,0.132,-0.040,0.454,-1.324
1.559,0.162,0.149,-0.046,0.528,-1.562
1.490,0.190,0.167,-0.050,0.580,-1.766
1.424,0.216,0.184,-0.052,0.608,-1.936
1.365,0.242,0.199,-0.057,0.615,-2.081
1.316,0.266,0.214,-0.064,0.604,-2.201
1.272,0.289,0.229,-0.074,0.579,-2.303
1.232,0.312,0.241,-0.090,0.545,-2.388
1.077,0.380,0.271,-0.209,0.339,-2.675
1.044,0.387,0.274,-0.244,0.289,-2.734
1.013,0.389,0.273,-0.282,0.245,-2.793
0.987,0.399,0.268,-0.317,0.214,-2.855
0.959,0.417,0.271,-0.360,0.190,-2.914
0.937,0.439,0.271,-0.404,0.176,-2.968
0.899,0.446,0.275,-0.454,0.175,-3.016
0.870,0.436,0.276,-0.503,0.182,-3.070
0.851,0.448,0.279,-0.546,0.203,-3.126
0.831,0.466,0.287,-0.583,0.236,-3.172
0.811,0.483,0.290,-0.616,0.278,-3.210
0.789,0.505,0.298,-0.640,0.335,-3.235
0.760,0.527,0.308,-0.659,0.402,-3.251
0.733,0.540,0.319,-0.674,0.471,-3.259
0.706,0.550,0.330,-0.683,0.548,-3.265
0.681,0.559,0.342,-0.689,0.623,-3.268
0.658,0.569,0.358,-0.691,0.692,-3.269

-0.353,1.169,0.512,0.244,0.344,0.431
-0.401,1.201,0.522,0.276,0.348,0.500
-0.453,1.234,0.530,0.314,0.343,0.584
-0.512,1.268,0.539,0.358,0.330,0.684
-0.578,1.302,0.546,0.408,0.306,0.802
-0.646,1.337,0.551,0.463,0.268,0.941
-0.716,1.365,0.559,0.523,0.211,1.103
-0.785,1.386,0.565,0.584,0.133,1.291
-0.851,1.401,0.570,0.647,0.036,1.509
-0.917,1.403,0.573,0.709,-0.081,1.758
-0.983,1.401,0.567,0.770,-0.219,2.038
-1.045,1.384,0.558,0.828,-0.374,2.348
-1.093,1.376,0.550,0.881,-0.540,2.685
-1.127,1.371,0.541,0.926,-0.697,3.052
-1.146,1.364,0.528,0.962,-0.843,3.453
-1.153,1.351,0.516,0.992,-0.978,3.890
-1.153,1.325,0.501,1.016,-1.101,4.362
-1.149,1.276,0.481,1.037,-1.217,4.866
-1.137,1.203,0.458,1.056,-1.329,5.393
-1.113,1.103,0.435,1.075,-1.434,5.932
-1.080,0.989,0.411,1.096,-1.526,6.468
-1.033,0.868,0.389,1.119,-1.602,6.988
-0.975,0.746,0.372,1.140,-1.659,7.476
-0.910,0.628,0.356,1.158,-1.704,7.923
-0.838,0.515,0.343,1.169,-1.746,8.322
-0.431,0.084,0.297,1.140,-2.068,9.467
-0.318,0.008,0.281,1.124,-2.170,9.601
-0.198,-0.053,0.261,1.108,-2.271,9.689
-0.069,-0.100,0.241,1.092,-2.366,9.730
0.064,-0.132,0.220,1.076,-2.454,9.729
0.200,-0.153,0.198,1.060,-2.536,9.684
0.333,-0.165,0.177,1.043,-2.614,9.598
0.469,-0.170,0.156,1.024,-2.688,9.474
0.603,-0.167,0.137,1.000,-2.760,9.313
0.736,-0.160,0.115,0.972,-2.828,9.116
0.865,-0.145,0.092,0.939,-2.890,8.882
0.993,-0.128,0.067,0.901,-2.946,8.613
1.113,-0.108,0.043,0.861,-2.993,8.304
1.228,-0.091,0.019,0.818,-3.026,7.960
1.336,-0.071,-0.004,0.775,-3.044,7.582
1.436,-0.056,-0.035,0.731,-3.039,7.173
1.528,-0.047,-0.067,0.693,-2.998,6.739
1.607,-0.042,-0.101,0.659,-2.913,6.285
1.667,-0.038,-0.137,0.628,-2.786,5.814
1.713,-0.027,-0.172,0.598,-2.634,5.326
1.750,-0.009,-0.204,0.568,-2.462,4.823
1.862,0.044,-0.269,0.385,-1.495,2.541
1.872,0.061,-0.270,0.330,-1.209,2.025
1.873,0.083,-0.264,0.276,-0.908,1.529
1.860,0.106,-0.253,0.225,-0.599,1.058
1.835,0.125,-0.237,0.179,-0.292,0.615
1.797,0.142,-0.218,0.140,0.000,0.205
1.749,0.162,-0.194,0.110,0.268,-0.169
1.697,0.181,-0.168,0.087,0.501,-0.511
1.641,0.204,-0.140,0.070,0.695,-0.819
1.586,0.227,-0.114,0.059,0.848,-1.095
1.530,0.247,-0.089,0.048,0.962,-1.342
1.474,0.265,-0.070,0.039,1.035,-1.562
1.420,0.283,-0.053,0.030,1.073,-1.759
1.370,0.302,-0.043,0.019,1.080,-1.935
1.322,0.316,-0.034,0.003,1.066,-2.091
1.277,0.328,-0.029,-0.016,1.037,-2.233
1.238,0.341,-0.028,-0.044,0.999,-2.362
1.202,0.353,-0.033,-0.078,0.961,-2.478
1.169,0.364,-0.042,-0.120,0.927,-2.586
1.138,0.373,-0.050,-0.171,0.902,-2.687
1.108,0.381,-0.057,-0.230,0.885,-2.783
1.079,0.390,-0.062,-0.295,0.882,-2.874
0.968,0.425,-0.065,-0.645,1.015,-3.235
0.931,0.418,-0.063,-0.742,1.071,-3.304
0.903,0.406,-0.057,-0.836,1.133,-3.382
0.880,0.414,-0.043,-0.930,1.206,-3.461
0.858,0.424,-0.030,-1.024,1.278,-3.532
0.837,0.441,-0.015,-1.113,1.356,-3.595
0.807,0.465,0.003,-1.199,1.438,-3.647
0.771,0.480,0.025,-1.279,1.517,-3.692
0.737,0.487,0.050,-1.352,1.594,-3.732
0.703,0.496,0.077,-1.416,1.669,-3.768
0.670,0.506,0.107,-1.473,1.735,-3.801
0.640,0.520,0.138,-1.522,1.792,-3.828

-0.322,1.116,0.522,0.249,0.196,0.276
-0.364,1.148,0.532,0.275,0.205,0.335
-0.412,1.181,0.540,0.301,0.209,0.405
-0.466,1.212,0.549,0.331,0.205,0.492
-0.524,1.246,0.559,0.362,0.194,0.595
-0.584,1.280,0.569,0.395,0.175,0.717
-0.647,1.309,0.577,0.428,0.143,0.862
-0.713,1.336,0.587,0.460,0.096,1.030
-0.778,1.358,0.594,0.493,0.033,1.225
-0.841,1.374,0.596,0.526,-0.043,1.447
-0.893,1.392,0.597,0.559,-0.133,1.700
-0.939,1.402,0.594,0.592,-0.233,1.983
-0.984,1.397,0.588,0.628,-0.348,2.297
-1.025,1.389,0.579,0.666,-0.483,2.635
-1.060,1.357,0.565,0.703,-0.631,2.995
-1.086,1.327,0.548,0.739,-0.792,3.371
-1.102,1.282,0.535,0.770,-0.947,3.762
-1.112,1.224,0.514,0.795,-1.100,4.162
-1.107,1.185,0.497,0.813,-1.241,4.569
-1.088,1.141,0.479,0.821,-1.356,4.984
-1.067,1.079,0.458,0.818,-1.453,5.412
-1.050,1.003,0.433,0.810,-1.545,5.846
-1.030,0.918,0.408,0.797,-1.647,6.275
-1.003,0.827,0.382,0.784,-1.761,6.691
-0.965,0.729,0.361,0.772,-1.889,7.087
-0.652,0.319,0.280,0.719,-2.410,8.464
-0.557,0.242,0.260,0.708,-2.523,8.683
-0.455,0.171,0.239,0.693,-2.633,8.861
-0.344,0.106,0.215,0.677,-2.736,8.999
-0.227,0.046,0.194,0.657,-2.827,9.097
-0.100,-0.005,0.173,0.634,-2.899,9.156
0.033,-0.046,0.152,0.607,-2.951,9.178
0.175,-0.073,0.129,0.575,-2.978,9.164
0.325,-0.091,0.109,0.541,-2.980,9.113
0.476,-0.100,0.090,0.506,-2.959,9.027
0.630,-0.098,0.071,0.469,-2.910,8.904
0.786,-0.089,0.053,0.433,-2.837,8.746
0.936,-0.075,0.036,0.401,-2.739,8.551
1.076,-0.059,0.021,0.371,-2.619,8.317
1.203,-0.047,0.006,0.345,-2.484,8.042
1.316,-0.041,-0.004,0.322,-2.337,7.725
1.413,-0.039,-0.011,0.302,-2.197,7.366
1.495,-0.036,-0.016,0.286,-2.057,6.965
1.568,-0.036,-0.021,0.272,-1.922,6.526
1.632,-0.035,-0.026,0.260,-1.791,6.053
1.688,-0.026,-0.031,0.245,-1.661,5.554
1.741,-0.026,-0.031,0.228,-1.521,5.036
1.831,0.042,-0.047,0.063,-0.905,2.724
1.836,0.066,-0.046,0.016,-0.743,2.199
1.833,0.087,-0.037,-0.030,-0.557,1.690
1.822,0.108,-0.026,-0.072,-0.349,1.206
1.801,0.130,-0.011,-0.106,-0.129,0.749
1.773,0.152,0.009,-0.131,0.094,0.328
1.735,0.171,0.034,-0.147,0.304,-0.060
1.691,0.190,0.061,-0.153,0.492,-0.409
1.644,0.210,0.090,-0.153,0.646,-0.723
1.595,0.231,0.117,-0.148,0.762,-1.004
1.545,0.251,0.144,-0.137,0.840,-1.254
1.496,0.271,0.166,-0.127,0.882,-1.478
1.448,0.292,0.184,-0.115,0.895,-1.680
1.399,0.309,0.199,-0.103,0.880,-1.865
1.352,0.324,0.208,-0.094,0.844,-2.033
1.306,0.335,0.214,-0.087,0.792,-2.188
1.265,0.344,0.216,-0.086,0.729,-2.331
1.223,0.350,0.213,-0.092,0.662,-2.464
1.184,0.359,0.209,-0.103,0.595,-2.590
1.145,0.353,0.197,-0.122,0.531,-2.708
1.114,0.365,0.188,-0.142,0.482,-2.827
1.079,0.372,0.176,-0.173,0.442,-2.938
0.945,0.388,0.137,-0.395,0.444,-3.360
0.918,0.395,0.132,-0.457,0.495,-3.448
0.891,0.407,0.127,-0.514,0.571,-3.527
0.859,0.425,0.129,-0.568,0.672,-3.594
0.826,0.440,0.134,-0.624,0.789,-3.653
0.790,0.454,0.139,-0.677,0.915,-3.710
0.757,0.466,0.150,-0.728,1.047,-3.764
0.724,0.480,0.165,-0.775,1.182,-3.815
0.689,0.496,0.180,-0.817,1.314,-3.861
0.652,0.514,0.196,-0.856,1.439,-3.903
0.617,0.530,0.214,-0.888,1.552,-3.934

-0.343,1.197,0.492,0.387,-0.299,0.114
-0.407,1.235,0.502,0.440,-0.364,0.188
-0.475,1.272,0.508,0.498,-0.455,0.282
-0.548,1.302,0.510,0.562,-0.580,0.398
-0.623,1.323,0.509,0.633,-0.740,0.543
-0.698,1.337,0.501,0.709,-0.932,0.717
-0.771,1.348,0.486,0.786,-1.154,0.927
-0.840,1.356,0.465,0.864,-1.397,1.172
-0.902,1.363,0.440,0.937,-1.654,1.447
-0.955,1.370,0.411,1.003,-1.911,1.753
-1.000,1.376,0.378,1.060,-2.149,2.086
-1.041,1.377,0.341,1.109,-2.354,2.441
-1.078,1.373,0.301,1.153,-2.521,2.818
-1.105,1.375,0.266,1.191,-2.645,3.213
-1.132,1.343,0.236,1.231,-2.722,3.623
-1.173,1.291,0.199,1.272,-2.766,4.046
-1.212,1.226,0.160,1.313,-2.774,4.483
-1.238,1.150,0.121,1.356,-2.756,4.928
-1.247,1.095,0.095,1.385,-2.732,5.232
-1.244,1.010,0.055,1.426,-2.679,5.691
-1.223,0.923,0.017,1.461,-2.606,6.154
-1.187,0.833,-0.022,1.486,-2.518,6.612
-1.137,0.741,-0.062,1.494,-2.414,7.057
-0.733,0.294,-0.162,1.235,-1.691,8.760
-0.615,0.201,-0.162,1.113,-1.488,9.019
-0.486,0.117,-0.154,0.973,-1.273,9.234
-0.345,0.046,-0.138,0.814,-1.044,9.407
-0.198,-0.011,-0.114,0.643,-0.806,9.533
-0.047,-0.053,-0.084,0.461,-0.570,9.614
0.106,-0.081,-0.048,0.272,-0.348,9.647
0.260,-0.099,-0.010,0.086,-0.154,9.633
0.413,-0.109,0.034,-0.095,0.003,9.574
0.566,-0.115,0.081,-0.263,0.122,9.468
0.716,-0.121,0.128,-0.415,0.202,9.320
0.862,-0.123,0.177,-0.548,0.236,9.129
1.003,-0.125,0.224,-0.660,0.225,8.893
1.134,-0.128,0.272,-0.751,0.166,8.609
1.257,-0.137,0.312,-0.825,0.068,8.278
1.371,-0.149,0.351,-0.881,-0.063,7.902
1.477,-0.158,0.383,-0.926,-0.221,7.483
1.570,-0.171,0.407,-0.960,-0.396,7.026
1.652,-0.190,0.425,-0.987,-0.574,6.540
1.731,-0.207,0.436,-1.006,-0.736,6.029
2.006,-0.227,0.416,-0.941,-1.050,3.711
2.053,-0.222,0.408,-0.878,-0.960,3.185
2.090,-0.216,0.406,-0.794,-0.795,2.675
2.114,-0.206,0.407,-0.692,-0.566,2.193
2.121,-0.190,0.412,-0.574,-0.284,1.738
2.115,-0.172,0.420,-0.441,0.027,1.311
2.095,-0.153,0.438,-0.298,0.343,0.915
2.062,-0.133,0.456,-0.153,0.649,0.550
2.023,-0.110,0.474,-0.009,0.928,0.214
1.975,-0.086,0.491,0.129,1.171,-0.095
1.920,-0.060,0.506,0.251,1.368,-0.380
1.864,-0.034,0.518,0.357,1.517,-0.644
1.809,-0.008,0.528,0.442,1.619,-0.888
1.759,0.018,0.533,0.504,1.681,-1.112
1.715,0.044,0.534,0.548,1.711,-1.319
1.676,0.071,0.533,0.571,1.717,-1.509
1.639,0.095,0.532,0.578,1.702,-1.686
1.614,0.109,0.528,0.573,1.684,-1.796
1.578,0.128,0.521,0.556,1.650,-1.955
1.540,0.145,0.515,0.526,1.609,-2.103
1.504,0.152,0.503,0.487,1.563,-2.244
1.469,0.175,0.499,0.446,1.522,-2.382
1.428,0.188,0.488,0.393,1.473,-2.512
1.390,0.220,0.485,0.336,1.424,-2.630
1.190,0.253,0.461,0.042,1.188,-3.127
1.148,0.267,0.456,-0.015,1.151,-3.207
1.120,0.278,0.455,-0.052,1.133,-3.254
1.075,0.294,0.456,-0.109,1.111,-3.320
1.029,0.304,0.456,-0.163,1.095,-3.382
0.986,0.317,0.458,-0.212,1.086,-3.443
0.947,0.333,0.464,-0.254,1.077,-3.503
0.908,0.350,0.472,-0.289,1.070,-3.562
0.870,0.367,0.481,-0.315,1.059,-3.615
0.833,0.385,0.490,-0.330,1.045,-3.661
0.794,0.402,0.499,-0.333,1.028,-3.697
0.753,0.417,0.504,-0.326,1.006,-3.724
0.713,0.432,0.510,-0.309,0.978,-3.740

-0.308,1.160,0.498,0.826,0.266,0.518
-0.347,1.183,0.516,0.906,0.293,0.599
-0.392,1.206,0.534,0.993,0.321,0.695
-0.442,1.233,0.554,1.088,0.358,0.805
-0.493,1.261,0.574,1.190,0.398,0.929
-0.548,1.294,0.595,1.298,0.438,1.072
-0.607,1.326,0.611,1.416,0.476,1.230
-0.670,1.357,0.626,1.545,0.502,1.414
-0.737,1.384,0.639,1.684,0.513,1.623
-0.808,1.403,0.649,1.829,0.502,1.857
-0.875,1.415,0.654,1.981,0.467,2.120
-0.941,1.417,0.655,2.134,0.411,2.413
-1.001,1.411,0.654,2.283,0.339,2.735
-1.053,1.395,0.650,2.423,0.256,3.086
-1.094,1.369,0.643,2.551,0.163,3.463
-1.123,1.334,0.631,2.661,0.061,3.866
-1.141,1.286,0.612,2.754,-0.048,4.291
-1.145,1.229,0.591,2.828,-0.170,4.732
-1.137,1.164,0.571,2.880,-0.305,5.184
-1.121,1.114,0.556,2.904,-0.403,5.487
-1.084,1.030,0.530,2.923,-0.560,5.939
-1.038,0.938,0.506,2.923,-0.728,6.382
-0.983,0.841,0.478,2.907,-0.913,6.805
-0.914,0.741,0.452,2.877,-1.120,7.199
-0.836,0.642,0.427,2.831,-1.348,7.560
-0.755,0.543,0.400,2.770,-1.602,7.880
-0.306,0.185,0.230,2.330,-3.136,8.759
-0.200,0.138,0.185,2.211,-3.512,8.814
-0.089,0.104,0.132,2.091,-3.890,8.826
0.022,0.080,0.077,1.968,-4.260,8.797
0.129,0.063,0.019,1.844,-4.613,8.730
0.232,0.051,-0.046,1.723,-4.947,8.629
0.328,0.044,-0.114,1.604,-5.255,8.497
0.422,0.038,-0.184,1.489,-5.534,8.337
0.485,0.036,-0.234,1.415,-5.699,8.219
0.579,0.036,-0.308,1.311,-5.905,8.023
0.670,0.036,-0.387,1.213,-6.055,7.810
0.760,0.038,-0.466,1.123,-6.144,7.580
0.848,0.039,-0.544,1.040,-6.159,7.338
0.933,0.036,-0.616,0.964,-6.096,7.081
1.014,0.031,-0.683,0.898,-5.951,6.815
1.092,0.022,-0.747,0.843,-5.726,6.539
1.166,0.016,-0.803,0.796,-5.422,6.251
1.241,0.014,-0.851,0.759,-5.048,5.954
1.314,0.016,-0.892,0.728,-4.605,5.647
1.380,0.018,-0.923,0.701,-4.102,5.330
1.448,0.021,-0.943,0.678,-3.547,5.003
1.503,0.023,-0.959,0.648,-2.963,4.670
1.561,0.039,-0.969,0.619,-2.365,4.328
1.675,0.048,-0.869,0.513,0.440,2.668
1.669,0.055,-0.830,0.490,0.923,2.284
1.665,0.063,-0.800,0.474,1.207,2.021
1.659,0.078,-0.750,0.444,1.580,1.619
1.648,0.097,-0.701,0.407,1.886,1.212
1.635,0.124,-0.653,0.363,2.118,0.807
1.619,0.153,-0.609,0.313,2.281,0.407
1.597,0.177,-0.568,0.260,2.372,0.021
1.567,0.194,-0.531,0.202,2.396,-0.345
1.533,0.210,-0.503,0.143,2.359,-0.690
1.496,0.228,-0.479,0.081,2.275,-1.011
1.458,0.247,-0.462,0.017,2.158,-1.309
1.419,0.270,-0.452,-0.049,2.022,-1.585
1.383,0.291,-0.445,-0.117,1.882,-1.839
1.347,0.310,-0.442,-0.188,1.749,-2.072
1.313,0.329,-0.445,-0.263,1.631,-2.284
1.278,0.347,-0.447,-0.342,1.536,-2.478
1.241,0.363,-0.447,-0.424,1.468,-2.655
1.205,0.379,-0.448,-0.512,1.427,-2.816
1.163,0.390,-0.448,-0.608,1.412,-2.961
1.120,0.399,-0.441,-0.708,1.420,-3.094
1.075,0.406,-0.431,-0.814,1.451,-3.213
0.884,0.448,-0.346,-1.320,1.729,-3.605
0.849,0.477,-0.312,-1.438,1.806,-3.668
0.804,0.486,-0.282,-1.557,1.880,-3.718
0.764,0.487,-0.251,-1.669,1.951,-3.769
0.731,0.500,-0.215,-1.774,2.020,-3.817
0.699,0.513,-0.180,-1.869,2.084,-3.856
0.671,0.538,-0.144,-1.952,2.147,-3.880
0.637,0.566,-0.107,-2.023,2.209,-3.889
0.597,0.587,-0.073,-2.082,2.269,-3.884

-0.411,1.172,0.425,0.374,-0.009,0.554
-0.456,1.204,0.429,0.403,-0.036,0.643
-0.503,1.237,0.435,0.432,-0.065,0.746
-0.553,1.270,0.440,0.461,-0.090,0.864
-0.603,1.302,0.444,0.491,-0.112,1.000
-0.654,1.329,0.448,0.524,-0.126,1.158
-0.706,1.349,0.451,0.561,-0.134,1.339
-0.757,1.361,0.454,0.602,-0.139,1.543
-0.809,1.371,0.454,0.650,-0.148,1.771
-0.843,1.377,0.454,0.685,-0.153,1.937
-0.889,1.386,0.456,0.741,-0.169,2.204
-0.933,1.391,0.454,0.799,-0.193,2.497
-0.971,1.390,0.454,0.858,-0.233,2.814
-1.004,1.379,0.452,0.917,-0.291,3.153
-1.031,1.356,0.449,0.974,-0.366,3.514
-1.054,1.323,0.440,1.028,-0.455,3.892
-1.072,1.283,0.429,1.078,-0.557,4.280
-1.082,1.239,0.417,1.123,-0.670,4.674
-1.086,1.185,0.402,1.161,-0.796,5.069
-1.078,1.121,0.388,1.192,-0.929,5.461
-1.061,1.048,0.374,1.215,-1.066,5.846
-1.042,0.967,0.357,1.228,-1.210,6.220
-1.011,0.884,0.338,1.235,-1.358,6.582
-0.768,0.510,0.251,1.189,-2.035,7.924
-0.692,0.428,0.227,1.163,-2.178,8.168
-0.611,0.352,0.204,1.134,-2.315,8.382
-0.524,0.284,0.181,1.101,-2.440,8.567
-0.434,0.223,0.157,1.064,-2.551,8.720
-0.340,0.171,0.133,1.026,-2.648,8.841
-0.246,0.125,0.108,0.985,-2.731,8.929
-0.151,0.090,0.080,0.944,-2.802,8.984
-0.054,0.060,0.052,0.902,-2.864,9.007
0.044,0.035,0.026,0.863,-2.920,8.998
0.146,0.013,-0.004,0.826,-2.972,8.961
0.253,-0.003,-0.034,0.790,-3.017,8.895
