aX,aY,aZ,gX,gY,gZ
-0.268,0.616,-1.202,-86.168,63.313,-21.328
-0.398,0.427,-1.325,-188.191,55.328,23.565
-0.107,0.354,-1.397,-250.137,17.313,53.618
0.159,0.217,-1.132,-250.137,-27.084,57.107
0.210,-0.120,-0.294,-250.137,-84.237,55.756
0.209,-0.355,0.835,-250.137,-123.305,28.756
0.192,-0.255,1.874,-250.137,-196.969,39.237
0.401,-0.094,2.000,-250.137,-218.359,56.076
0.631,0.066,2.000,-250.137,-164.947,44.321
0.751,0.189,2.000,-168.695,-101.733,15.275
0.632,0.189,2.000,-13.038,-40.763,-21.885
0.404,0.184,2.000,99.748,-11.817,-30.855
0.328,0.173,1.756,177.725,18.878,-26.817
0.278,0.216,1.346,195.687,51.405,-19.366
0.291,0.258,1.146,202.405,61.061,-13.427
0.341,0.331,1.007,218.244,74.099,-20.557
0.260,0.307,0.926,246.901,86.595,-31.344
0.120,0.385,0.694,250.130,91.160,-32.962
0.053,0.423,0.503,250.130,108.137,-22.733
0.024,0.486,0.341,250.130,125.885,-12.290
-0.011,0.570,0.244,234.015,113.611,-2.840
-0.010,0.623,0.185,206.198,94.061,4.481
0.026,0.664,0.146,179.863,94.275,5.962
0.027,0.708,0.157,154.000,95.237,6.901
0.024,0.787,0.187,134.412,79.282,8.076
0.062,0.771,0.225,122.450,57.885,6.496
0.075,0.815,0.205,109.328,50.282,1.221
0.045,0.837,0.220,98.084,41.489,-2.405
0.037,0.853,0.214,88.534,34.649,-3.511
0.013,0.880,0.216,80.305,28.542,-6.267
0.021,0.880,0.235,75.664,35.137,-6.282
0.020,0.902,0.259,76.092,40.031,-7.702
0.002,0.924,0.269,79.511,39.664,-9.191
-0.008,0.914,0.251,84.412,41.931,-8.504
-0.016,0.907,0.194,88.015,36.763,-11.374
-0.031,0.928,0.132,83.580,28.687,-13.603
-0.067,0.918,0.125,78.458,23.252,-14.038
-0.090,0.920,0.095,74.748,20.000,-13.725
-0.115,0.948,0.051,69.901,20.160,-10.870
-0.121,0.946,0.005,62.015,24.893,-6.397
-0.107,0.823,0.069,61.267,26.435,-1.282
-0.064,0.972,-0.066,43.725,38.542,-0.656
-0.037,0.990,-0.070,31.824,30.496,-5.092
-0.046,0.959,-0.051,18.954,16.130,-10.191
-0.078,0.947,-0.017,7.885,8.626,-14.336
-0.122,0.973,-0.008,1.832,9.679,-16.649
-0.172,0.973,0.027,-1.412,13.802,-12.679
-0.204,0.990,0.056,-3.252,22.115,-2.145
-0.245,0.976,0.140,3.267,16.450,15.893
-0.153,0.989,0.124,9.893,16.397,24.496

0.035,0.678,-1.152,-22.344,26.634,15.542
0.048,0.617,-1.550,-148.710,4.802,7.802
0.018,0.419,-1.524,-250.137,-44.969,4.351
0.046,0.190,-1.087,-250.137,-115.435,13.985
0.128,-0.019,-0.612,-250.137,-167.855,33.832
0.260,-0.168,-0.035,-250.137,-193.817,47.557
0.401,-0.266,0.706,-250.137,-236.557,45.588
0.625,-0.395,1.319,-250.137,-250.137,48.092
0.836,-0.284,2.000,-250.137,-208.153,19.336
0.667,-0.078,2.000,-250.137,-85.840,-23.107
0.465,0.157,2.000,-173.847,-31.626,-36.366
0.322,0.239,2.000,54.870,10.534,-39.763
0.153,0.138,2.000,217.863,55.260,-29.412
0.111,0.084,2.000,250.130,110.267,-6.985
0.131,0.061,1.535,250.130,157.496,24.260
0.214,0.055,1.279,250.130,176.939,42.496
0.297,0.059,0.907,250.130,169.313,46.725
0.349,0.130,0.497,250.130,155.229,36.878
0.366,0.355,0.035,250.130,130.458,17.382
0.282,0.486,-0.229,250.130,105.221,-2.511
0.188,0.587,-0.385,250.130,70.450,-11.122
0.146,0.716,-0.488,227.260,46.985,-22.313
0.075,0.796,-0.471,155.000,38.076,-35.031
-0.009,0.828,-0.409,98.099,27.611,-39.893
-0.092,0.867,-0.256,52.702,21.794,-30.237
-0.083,0.900,-0.117,27.015,9.550,-16.366
0.009,0.898,0.022,18.382,3.206,-13.008
0.033,0.902,0.098,22.351,1.122,-22.824
-0.019,0.955,0.127,26.344,3.260,-28.924
-0.063,0.978,0.173,32.924,14.412,-28.374
-0.090,1.006,0.233,40.672,25.115,-25.000
-0.112,0.996,0.282,55.840,28.115,-22.611
-0.141,0.954,0.287,76.580,22.939,-17.107
-0.145,0.957,0.208,93.305,13.519,-15.939
-0.168,0.939,0.122,104.076,9.756,-13.458
-0.153,0.961,0.011,109.198,27.038,-10.511
-0.172,0.959,-0.052,105.748,40.649,-5.115
-0.145,0.972,-0.083,98.931,35.939,2.985
-0.071,0.960,-0.113,91.198,27.328,5.473
-0.044,0.961,-0.152,89.733,25.374,0.511
-0.043,0.928,-0.168,88.519,23.901,-5.534
-0.042,0.909,-0.215,84.656,16.069,-9.053
-0.080,0.848,-0.222,82.779,11.580,-12.496
-0.115,0.980,-0.309,69.023,18.084,-17.252
-0.170,0.974,-0.312,60.305,23.038,-18.031
-0.196,1.035,-0.352,44.145,27.344,-9.947
-0.217,0.976,-0.281,32.023,14.702,1.092
-0.170,1.000,-0.330,24.252,2.733,8.771
-0.109,0.972,-0.298,15.931,5.046,10.885
-0.079,0.963,-0.281,12.267,7.771,6.389

-0.211,0.453,-1.166,-250.137,-55.069,-49.977
-0.324,0.414,-0.961,-250.137,-116.092,-12.359
-0.146,0.233,-0.275,-250.137,-174.321,25.855
0.088,0.268,0.396,-250.137,-210.908,57.626
0.353,0.239,1.227,-250.137,-237.893,55.870
0.506,0.355,1.955,-250.137,-203.969,33.260
0.528,0.485,2.000,-250.137,-127.786,2.786
0.473,0.602,2.000,-106.725,-16.260,-25.916
0.221,0.626,2.000,69.313,59.252,-43.802
-0.039,0.619,2.000,202.985,93.924,-34.229
-0.097,0.542,1.771,250.130,112.435,-10.824
-0.079,0.501,1.275,250.130,121.000,15.710
0.025,0.523,0.852,250.130,105.962,33.992
0.161,0.550,0.461,250.130,101.824,36.580
0.215,0.568,0.166,250.130,93.649,29.382
0.228,0.628,-0.135,250.130,76.382,12.550
0.179,0.731,-0.348,192.496,54.763,-8.260
0.054,0.809,-0.375,126.496,37.802,-20.679
-0.047,0.851,-0.245,82.000,28.809,-22.221
-0.122,0.864,-0.041,60.992,21.779,-19.328
-0.164,0.898,0.113,58.573,22.031,-13.176
-0.178,0.890,0.171,66.008,23.015,-3.771
-0.157,0.924,0.149,72.466,24.725,7.527
-0.085,0.957,0.154,74.733,26.458,13.863
-0.028,0.930,0.163,81.802,31.137,12.229
0.004,0.955,0.149,88.634,38.786,10.656
0.024,0.945,0.122,95.069,37.336,4.069
-0.003,0.969,0.053,96.969,29.405,-1.748
-0.033,0.955,-0.003,95.458,26.061,-3.687
-0.041,0.950,-0.093,89.008,27.771,-2.847
-0.036,0.968,-0.160,75.115,25.588,-2.290
-0.045,0.944,-0.187,62.389,16.122,-5.000
-0.049,0.948,-0.218,47.779,13.160,-7.786
-0.056,0.959,-0.211,33.885,14.603,-9.489
-0.094,0.990,-0.166,22.748,10.191,-7.321
-0.074,0.974,-0.114,18.130,4.267,-9.328
-0.090,0.959,-0.083,20.595,7.099,-10.115
-0.122,0.960,-0.091,25.168,11.817,-10.115
-0.143,0.971,-0.132,24.084,9.397,-6.504
-0.130,0.971,-0.162,21.557,5.328,-0.702
-0.083,0.979,-0.157,16.733,5.137,1.901
-0.071,0.983,-0.141,14.000,3.153,1.397
-0.082,0.995,-0.133,11.076,1.985,-0.534
-0.104,1.001,-0.112,10.733,6.687,-1.244
-0.121,1.006,-0.053,14.183,10.374,0.679
-0.112,1.012,-0.032,21.221,8.656,4.466
-0.078,1.005,-0.042,28.840,7.885,6.015
-0.041,1.001,-0.110,34.786,9.634,1.206
-0.044,0.988,-0.162,34.519,9.847,-4.832
-0.079,0.994,-0.191,29.939,9.679,-6.863

0.096,0.420,1.346,-250.137,-188.634,40.427
0.356,0.556,1.615,-250.137,-140.389,54.115
0.458,0.572,2.000,-250.137,-100.992,34.015
0.498,0.591,2.000,-141.931,-74.359,1.443
0.350,0.627,2.000,-25.015,-34.962,-25.924
0.136,0.644,1.923,66.305,17.641,-26.527
0.102,0.648,1.599,119.458,56.817,-9.794
0.125,0.620,1.431,156.962,60.374,4.290
0.254,0.659,1.280,186.779,60.557,14.649
0.322,0.574,1.294,217.573,59.427,10.931
0.376,0.565,1.130,250.130,60.885,-6.809
0.274,0.505,0.839,250.130,71.389,-22.481
0.196,0.527,0.560,250.130,82.687,-28.176
0.087,0.565,0.297,250.130,77.046,-26.679
0.042,0.604,0.039,250.130,68.107,-20.550
0.052,0.640,-0.204,250.130,65.939,-17.061
0.077,0.702,-0.410,250.130,73.962,-14.985
0.084,0.810,-0.503,196.550,74.664,-15.626
0.067,0.857,-0.523,134.450,40.893,-20.061
0.053,0.866,-0.471,83.137,17.550,-28.107
-0.006,0.871,-0.385,47.336,-2.527,-31.656
-0.052,0.916,-0.300,21.000,-15.137,-28.122
-0.083,0.920,-0.191,6.122,-18.878,-26.237
-0.097,0.957,-0.096,2.084,-12.137,-21.496
-0.109,1.026,-0.021,0.092,-4.115,-16.962
-0.087,0.958,0.045,7.924,-6.817,-10.718
-0.025,0.972,0.018,19.687,-8.000,-10.061
-0.020,1.007,-0.022,23.450,-4.962,-11.679
-0.029,0.965,-0.022,26.092,-7.275,-12.832
-0.029,0.974,-0.039,26.992,-15.198,-13.710
-0.042,0.932,-0.109,24.656,-19.351,-16.023
-0.059,0.964,-0.162,15.519,-13.122,-17.237
-0.073,0.975,-0.153,1.496,-9.878,-14.931
-0.042,0.982,-0.090,-10.458,-17.786,-15.733
-0.027,0.998,-0.060,-16.641,-30.092,-18.588
0.006,0.989,-0.066,-24.008,-40.802,-24.954
-0.003,1.005,-0.058,-20.824,-34.504,-38.908
-0.094,1.015,-0.023,-22.000,-13.427,-51.504
-0.204,0.967,0.073,-8.145,-5.290,-57.405
-0.244,0.968,0.094,6.908,-8.176,-57.076
-0.292,0.981,0.079,19.519,-5.107,-45.626
-0.336,1.000,0.049,29.748,4.725,-24.893
-0.341,1.014,-0.001,32.924,13.206,4.939
-0.223,0.997,-0.010,35.145,14.435,19.084
-0.149,0.990,-0.036,38.031,18.038,18.221
-0.137,0.983,-0.047,38.534,18.382,16.473
-0.102,1.003,-0.048,38.885,11.282,16.718
-0.066,0.992,-0.076,41.710,12.427,10.412
-0.084,0.977,-0.099,45.420,15.099,5.504
-0.102,0.975,-0.133,42.969,13.275,2.145

-0.078,0.594,-1.152,-97.466,12.786,-32.824
-0.154,0.574,-1.333,-190.366,-24.954,-35.656
-0.201,0.417,-1.305,-250.137,-50.916,-22.626
-0.126,0.283,-1.048,-250.137,-77.176,-0.305
-0.002,0.159,-0.635,-250.137,-126.779,13.847
0.069,0.054,0.119,-250.137,-186.817,22.198
0.110,0.059,0.876,-250.137,-243.817,32.076
0.225,0.235,1.448,-250.137,-245.962,42.206
0.252,0.442,2.000,-250.137,-181.649,51.397
0.331,0.574,2.000,-250.137,-108.809,48.840
0.420,0.615,2.000,-116.351,-34.809,24.740
0.305,0.619,2.000,21.344,24.244,4.656
0.176,0.589,1.964,107.122,50.321,3.237
0.154,0.589,1.562,157.756,67.511,10.244
0.179,0.603,1.246,182.473,69.595,15.702
0.233,0.616,1.021,193.053,66.718,15.000
0.256,0.633,0.847,202.420,72.321,7.427
0.250,0.619,0.691,209.496,84.947,-3.374
0.188,0.628,0.539,212.122,90.275,-14.519
0.103,0.684,0.391,207.206,86.580,-23.267
-0.002,0.729,0.275,197.977,82.053,-23.130
-0.057,0.777,0.203,183.893,75.634,-14.985
-0.073,0.778,0.176,173.130,65.679,-7.702
-0.072,0.777,0.143,165.863,63.313,-5.405
-0.088,0.800,0.080,157.534,67.832,-2.924
-0.089,0.842,0.012,144.542,72.832,-0.130
-0.080,0.863,-0.027,126.168,67.969,3.519
-0.051,0.910,-0.025,107.809,55.305,6.733
-0.033,0.911,-0.013,97.450,38.122,5.053
-0.022,0.906,-0.021,89.733,31.496,0.099
-0.034,0.929,-0.073,79.359,28.580,-5.802
-0.077,0.951,-0.097,65.519,27.779,-8.656
-0.111,0.954,-0.049,53.664,26.634,-7.748
-0.119,0.949,-0.018,47.748,20.557,-3.130
-0.097,0.988,0.024,43.947,18.664,0.481
-0.076,0.970,0.035,46.038,15.573,1.542
-0.058,0.969,0.010,50.649,13.702,0.153
-0.063,0.963,-0.034,51.924,13.794,-1.687
-0.102,0.983,-0.068,52.290,20.405,-4.420
-0.093,0.964,-0.094,47.664,11.511,2.229
-0.038,0.992,-0.146,37.420,10.015,0.611
-0.045,1.000,-0.152,25.359,7.855,-6.046
-0.079,0.969,-0.106,20.221,3.611,-10.580
-0.115,0.985,-0.111,18.015,7.924,-10.809
-0.163,0.978,-0.095,17.580,5.878,-7.321
-0.160,0.987,-0.100,17.008,3.725,-0.267
-0.118,0.995,-0.090,15.718,2.672,5.015
-0.072,0.985,-0.092,16.802,-0.489,5.275
-0.047,0.977,-0.117,16.122,-1.008,0.359
-0.058,0.971,-0.154,12.183,-3.565,-4.496

-0.151,0.603,-1.070,-243.832,-9.099,-43.794
-0.212,0.495,-0.912,-250.137,-81.740,-23.046
-0.069,0.270,-0.653,-250.137,-143.214,-1.481
0.106,0.218,-0.176,-250.137,-161.489,5.557
0.150,0.257,0.516,-250.137,-214.137,-0.244
0.187,0.344,1.237,-250.137,-250.137,0.969
0.145,0.398,1.877,-250.137,-192.771,8.282
0.139,0.570,2.000,-250.137,-99.779,13.588
0.133,0.622,2.000,-133.206,-54.015,13.298
0.154,0.656,2.000,13.565,-5.779,7.855
0.084,0.629,2.000,117.779,33.008,7.664
0.081,0.601,1.557,177.344,62.244,15.344
0.108,0.588,1.243,202.916,77.947,21.748
0.152,0.598,1.016,215.504,80.519,24.359
0.217,0.622,0.829,223.611,85.008,18.344
0.219,0.652,0.681,227.985,87.015,6.382
0.175,0.660,0.549,232.840,90.328,-7.183
0.079,0.675,0.405,235.359,97.481,-15.573
-0.018,0.691,0.300,233.611,97.656,-15.878
-0.069,0.710,0.164,228.626,96.985,-10.313
-0.079,0.754,0.020,217.092,95.366,-4.855
-0.099,0.757,-0.068,194.603,94.893,-2.221
-0.134,0.835,-0.158,165.267,79.794,2.328
-0.138,0.861,-0.172,138.198,61.023,7.672
-0.108,0.872,-0.174,114.229,53.206,14.069
-0.091,0.921,-0.127,95.481,45.046,17.534
-0.048,0.915,-0.064,82.840,31.794,16.267
-0.044,0.926,-0.039,78.214,27.290,12.427
-0.051,0.924,-0.043,75.580,25.420,8.427
-0.064,0.950,-0.057,72.145,26.634,5.954
-0.094,0.948,-0.085,66.550,26.389,8.565
-0.072,1.008,-0.100,56.458,22.130,12.916
-0.032,0.979,-0.077,50.290,16.504,12.023
-0.000,0.978,-0.033,50.901,14.435,8.756
0.005,0.971,-0.053,53.351,13.908,2.740
-0.033,0.969,-0.076,57.053,14.000,-0.557
-0.057,0.970,-0.117,55.427,16.122,-0.985
-0.063,0.982,-0.158,51.031,13.427,-1.275
-0.077,0.995,-0.184,43.527,11.229,0.206
-0.073,0.997,-0.187,36.107,13.069,1.160
-0.075,0.997,-0.156,30.580,11.466,2.687
-0.059,0.982,-0.145,29.130,6.221,2.672
-0.042,0.981,-0.162,28.504,3.183,0.908
-0.050,0.971,-0.183,27.794,5.282,-0.389
-0.041,0.979,-0.204,24.176,7.947,-2.634
-0.049,0.972,-0.226,21.191,8.176,-4.557
-0.096,0.984,-0.192,17.183,8.237,-5.947
-0.089,0.980,-0.156,18.489,-0.313,-0.962
-0.068,0.984,-0.157,21.809,1.107,0.107
-0.062,0.984,-0.161,24.817,4.626,-0.176

0.045,0.537,-1.239,-159.069,-10.763,-68.328
-0.066,0.461,-1.422,-250.137,-48.092,-77.229
-0.195,0.233,-1.244,-250.137,-135.061,-54.565
-0.147,0.080,-0.844,-250.137,-202.038,-21.092
-0.033,0.047,-0.054,-250.137,-230.847,12.786
0.071,-0.059,1.178,-250.137,-250.137,38.954
0.342,0.187,1.903,-250.137,-250.137,45.366
0.444,0.382,2.000,-250.137,-213.275,36.420
0.430,0.647,2.000,-222.817,-93.840,21.641
0.365,0.693,2.000,-37.412,6.412,2.550
0.257,0.658,2.000,101.542,52.038,-10.229
0.132,0.603,1.884,205.168,79.237,-12.115
0.076,0.560,1.364,250.130,95.733,-5.366
0.082,0.547,0.939,250.130,106.466,4.420
0.129,0.594,0.638,250.130,113.305,8.779
0.146,0.659,0.419,250.130,110.420,6.130
0.127,0.681,0.232,239.611,101.916,3.695
0.137,0.713,0.115,217.626,90.794,-4.519
0.078,0.742,-0.006,187.656,74.710,-20.061
-0.040,0.789,-0.105,158.916,59.008,-29.634
-0.148,0.828,-0.142,129.359,60.725,-24.656
-0.194,0.856,-0.086,103.901,60.809,-12.374
-0.198,0.894,-0.011,88.466,51.672,-0.924
-0.169,0.910,0.034,80.611,41.092,4.763
-0.127,0.923,0.043,75.710,39.740,8.130
-0.112,0.955,0.083,74.145,40.031,9.191
-0.104,0.940,0.097,77.695,43.435,8.191
-0.105,0.955,0.106,80.481,44.687,8.359
-0.098,0.958,0.077,81.191,43.977,10.641
-0.077,0.971,0.053,81.573,42.237,10.687
-0.049,0.962,0.022,84.099,46.244,9.969
-0.034,0.951,-0.022,84.687,46.092,7.687
-0.021,0.948,-0.072,82.580,37.160,3.244
-0.034,0.939,-0.149,77.756,29.099,-0.282
-0.042,0.949,-0.205,67.382,25.534,-1.809
-0.058,0.966,-0.221,54.672,23.794,-2.573
-0.069,0.974,-0.218,43.252,18.885,-0.267
-0.058,0.960,-0.205,33.504,16.947,0.901
-0.062,0.956,-0.187,27.885,10.695,-0.382
-0.074,0.961,-0.208,23.244,8.733,-0.954
-0.073,0.975,-0.208,16.832,8.695,0.924
-0.069,0.965,-0.204,12.229,4.565,2.145
-0.056,0.977,-0.196,4.374,1.115,1.321
-0.052,0.996,-0.168,-1.954,-1.290,-1.817
-0.081,1.006,-0.123,-4.595,0.321,-4.282
-0.102,1.022,-0.087,-4.031,1.679,-3.718
-0.108,1.020,-0.084,-0.618,1.153,-2.863
-0.111,1.002,-0.088,3.374,3.221,-3.008
-0.113,0.996,-0.105,5.962,2.901,-3.565
-0.128,1.014,-0.104,5.985,4.550,-3.573

0.186,0.692,-0.950,-153.626,5.573,-5.450
0.110,0.626,-1.140,-250.137,-1.427,-30.023
-0.175,0.528,-1.060,-250.137,-6.649,-16.733
-0.087,0.347,-0.652,-250.137,25.840,14.412
0.263,0.086,-0.048,-250.137,51.565,11.000
0.297,-0.003,0.706,-250.137,59.626,-43.023
0.088,0.056,1.445,-250.137,56.069,-78.351
-0.210,0.245,2.000,-250.137,47.191,-78.817
-0.387,0.493,2.000,-250.137,33.038,-55.672
-0.522,0.490,2.000,-108.099,-5.214,-18.344
-0.479,0.472,2.000,4.473,-28.656,15.992
-0.332,0.392,1.613,51.649,-47.099,35.718
-0.197,0.475,1.370,82.359,-39.878,44.924
-0.100,0.499,1.276,115.679,-29.985,57.718
0.080,0.474,1.163,151.237,-9.565,61.908
0.130,0.482,1.060,178.160,-0.695,55.260
0.171,0.531,0.938,198.130,-3.702,47.344
0.132,0.578,0.778,217.336,-4.679,37.740
0.063,0.604,0.642,227.832,-0.855,36.756
0.042,0.652,0.521,230.618,6.656,39.046
0.041,0.639,0.443,225.863,11.389,44.481
0.089,0.676,0.361,215.725,10.603,44.115
0.074,0.706,0.305,204.473,12.748,35.412
0.058,0.734,0.228,189.550,3.008,38.557
0.153,0.789,0.125,166.733,-5.901,37.878
0.213,0.833,0.065,137.618,1.466,30.504
0.193,0.890,0.089,108.405,4.840,27.061
0.212,0.895,0.211,94.099,6.206,23.076
0.176,0.867,0.263,97.763,5.267,19.099
0.168,0.835,0.248,108.939,1.084,10.015
0.132,0.878,0.118,113.229,-2.084,0.985
0.095,0.935,0.022,101.282,-7.870,2.038
0.079,0.950,-0.019,79.641,-12.695,7.557
0.121,0.955,-0.001,64.557,-10.542,10.649
0.148,0.939,0.010,58.954,-4.824,8.290
0.168,0.933,-0.021,51.168,-2.733,2.519
0.110,0.957,-0.050,37.443,-2.115,-2.336
0.050,0.979,-0.021,27.229,-7.168,0.458
0.068,1.003,0.035,28.252,-3.947,10.916
0.152,0.977,0.037,27.427,-10.840,16.275
0.206,0.955,0.057,27.489,-21.779,11.427
0.219,0.950,0.022,30.351,-19.076,3.618
0.180,0.954,-0.007,31.290,-14.008,-1.321
0.166,0.960,-0.056,27.603,-10.969,-2.885
0.156,0.996,-0.091,18.573,-5.534,-3.832
0.120,0.999,-0.067,8.992,-0.466,-1.817
0.113,1.011,0.010,5.870,0.328,3.267
0.141,1.002,0.094,11.550,-1.656,7.008
0.159,0.969,0.109,24.260,-5.870,4.634
0.161,0.977,0.057,36.634,-5.969,1.740

0.270,0.758,-0.785,-79.267,-26.038,-26.038
0.232,0.674,-1.083,-139.069,-26.649,-38.779
0.170,0.595,-1.365,-225.634,-18.366,-46.122
0.146,0.453,-1.526,-250.137,-4.824,-48.863
0.059,0.260,-1.387,-250.137,-2.489,-42.542
0.122,-0.066,-0.678,-250.137,37.252,-33.511
0.173,-0.289,0.180,-250.137,47.641,-57.733
0.030,-0.252,1.199,-250.137,58.519,-78.053
-0.290,0.048,2.000,-250.137,74.664,-60.145
-0.306,0.216,2.000,-250.137,4.786,-26.618
-0.133,0.228,2.000,-215.244,-26.924,-20.252
-0.152,0.307,2.000,-39.962,-32.641,-14.969
-0.286,0.438,1.952,67.687,-31.878,9.061
-0.159,0.434,1.458,95.794,-24.252,32.008
0.074,0.401,1.329,115.969,-14.779,37.863
0.211,0.405,1.237,144.115,-3.038,31.405
0.276,0.441,1.119,167.031,3.809,18.519
0.245,0.479,1.066,186.939,0.466,4.969
0.164,0.512,0.950,214.023,-1.321,-2.443
0.115,0.578,0.789,235.527,5.168,-4.015
0.029,0.601,0.619,247.924,7.947,2.122
0.018,0.646,0.483,250.130,7.832,7.344
-0.021,0.654,0.384,249.802,15.557,14.794
-0.050,0.715,0.303,237.931,15.511,21.939
-0.025,0.752,0.275,223.908,8.817,31.649
0.050,0.752,0.205,213.305,6.313,37.397
0.128,0.768,0.098,199.962,6.008,35.809
0.166,0.795,0.015,177.588,-0.237,28.916
0.190,0.849,-0.053,152.267,-2.069,22.023
0.183,0.853,-0.082,125.031,-4.496,18.321
0.207,0.867,-0.100,103.000,-8.145,12.557
0.217,0.887,-0.149,78.458,-6.916,4.542
0.205,0.915,-0.163,46.489,-3.611,-3.794
0.183,0.944,-0.110,15.481,-4.985,-10.626
0.113,0.979,0.001,3.878,-1.794,-10.695
0.104,0.981,0.098,6.198,5.176,-5.122
0.118,0.948,0.151,16.931,2.122,0.298
0.169,0.938,0.122,29.885,2.458,-0.618
0.173,0.927,0.055,34.206,2.435,-7.183
0.096,0.960,0.021,29.038,1.153,-9.542
0.069,0.978,0.022,22.466,-3.870,-4.748
0.084,0.994,0.040,21.931,-3.466,0.160
0.099,0.987,0.050,26.435,3.137,3.595
0.151,0.968,0.057,27.931,5.000,2.893
0.167,0.969,0.057,28.847,0.557,-3.031
0.151,0.982,0.041,31.656,0.885,-7.542
0.108,0.979,0.013,32.160,3.397,-7.458
0.091,0.982,-0.021,27.832,4.015,-7.252
0.073,0.993,-0.018,21.290,1.931,-8.397
0.024,1.014,-0.018,17.313,4.954,-4.985

0.152,0.731,-0.909,-59.321,-27.389,-20.008
0.218,0.670,-1.312,-137.359,-29.679,-26.664
0.179,0.521,-1.606,-250.137,-7.115,-33.771
0.149,0.363,-1.557,-250.137,2.916,-41.099
0.112,0.036,-0.941,-250.137,47.519,-40.664
-0.018,-0.224,-0.075,-250.137,77.664,-61.366
-0.189,-0.210,0.891,-250.137,61.756,-74.817
-0.412,0.007,2.000,-250.137,79.176,-36.191
-0.403,0.249,2.000,-250.137,37.366,10.580
-0.087,0.138,2.000,-224.313,-17.733,15.748
0.043,0.206,2.000,-44.275,-32.084,-5.397
-0.177,0.349,2.000,85.542,-35.305,-3.115
-0.154,0.409,1.588,134.771,-36.519,15.931
-0.012,0.437,1.211,154.595,-24.794,25.649
0.108,0.473,1.054,167.069,-11.412,27.649
0.200,0.520,0.945,172.084,-7.221,20.534
0.167,0.533,0.927,179.214,-7.458,10.611
0.115,0.567,0.853,201.702,-6.710,2.977
0.054,0.611,0.758,227.702,0.229,1.824
0.012,0.643,0.620,247.336,3.901,9.229
0.006,0.666,0.488,250.130,8.031,14.992
-0.017,0.690,0.379,250.130,5.107,17.740
-0.033,0.733,0.294,247.374,8.374,24.473
0.024,0.744,0.194,239.969,12.725,35.687
0.115,0.746,0.083,226.649,10.916,36.802
0.174,0.756,-0.017,204.794,4.725,27.649
0.185,0.806,-0.114,176.061,-2.763,17.015
0.199,0.847,-0.184,144.595,-5.061,8.641
0.177,0.895,-0.217,112.084,1.328,1.519
0.148,0.944,-0.196,77.031,2.786,-2.023
0.107,0.946,-0.105,51.595,3.794,-1.412
0.105,0.943,-0.053,42.954,6.336,-1.359
0.096,0.958,-0.037,36.725,11.008,-1.282
0.093,0.975,-0.020,30.420,8.527,-1.412
0.088,0.977,0.026,25.802,5.695,0.473
0.088,0.976,0.064,30.458,1.763,3.328
0.105,0.963,0.049,40.038,-0.840,5.435
0.141,0.976,-0.011,43.779,-1.473,3.435
0.128,0.971,-0.076,39.229,1.641,2.374
0.081,0.973,-0.052,29.458,1.183,1.832
0.093,0.994,-0.018,29.282,1.489,4.618
0.119,0.987,-0.018,32.221,-2.115,8.145
0.173,0.964,-0.054,35.092,-0.687,6.611
0.175,0.957,-0.086,32.145,1.168,0.870
0.143,0.982,-0.084,25.962,2.374,-2.901
0.107,0.988,-0.083,19.947,-1.725,-2.550
0.087,0.988,-0.058,21.405,-1.901,2.145
0.116,0.989,-0.090,24.053,-1.168,4.947
0.127,0.984,-0.108,21.649,-1.427,2.954
0.131,0.989,-0.094,17.603,-0.573,2.023

0.250,0.726,-0.912,-112.076,-46.771,-0.962
0.306,0.578,-1.328,-206.252,-39.878,-10.885
0.346,0.346,-1.521,-250.137,-17.229,-26.031
0.381,0.081,-1.328,-250.137,19.435,-51.931
0.175,-0.255,-0.633,-250.137,93.939,-82.481
-0.233,-0.338,0.363,-250.137,99.702,-102.817
-0.466,-0.240,1.694,-250.137,69.901,-69.634
-0.517,0.018,2.000,-250.137,58.618,-16.573
-0.207,-0.061,2.000,-250.137,4.924,3.244
-0.094,0.013,2.000,-161.405,-17.832,-20.321
-0.318,0.255,2.000,12.901,-24.282,-13.824
-0.362,0.285,1.969,108.397,-38.000,23.450
-0.088,0.264,1.548,145.947,-31.389,42.099
0.107,0.276,1.325,177.664,-17.794,39.107
0.195,0.341,1.100,196.725,0.641,28.267
0.160,0.406,0.967,196.412,3.076,15.298
0.097,0.493,0.949,201.504,3.626,7.969
0.003,0.544,0.874,221.588,8.863,7.481
-0.062,0.570,0.779,240.176,17.634,17.519
-0.072,0.593,0.674,250.130,20.550,29.168
-0.020,0.587,0.547,250.130,19.748,41.023
0.023,0.632,0.410,250.130,18.313,42.962
0.060,0.658,0.264,250.130,2.733,42.626
0.129,0.698,0.116,229.145,-7.420,38.908
0.195,0.741,-0.039,194.870,-7.489,29.901
0.205,0.794,-0.102,155.916,-8.473,16.977
0.166,0.870,-0.117,119.687,-4.122,7.473
0.112,0.907,-0.079,92.992,4.878,7.939
0.100,0.927,-0.022,74.008,10.817,11.534
0.099,0.913,0.029,61.832,5.244,13.405
0.120,0.913,0.048,57.198,-1.427,13.748
0.124,0.915,0.039,54.573,-3.847,11.550
0.148,0.922,0.002,50.214,-3.687,10.405
0.159,0.937,-0.000,42.412,-3.695,8.160
0.166,0.943,0.000,33.939,-5.687,3.656
0.176,0.938,-0.010,30.809,-2.328,0.382
0.144,0.964,-0.016,27.527,0.130,-3.832
0.101,0.973,0.007,24.397,5.122,-0.366
0.126,0.962,0.024,20.519,-0.168,1.863
0.156,0.953,-0.001,18.786,-2.557,-0.176
0.168,0.967,-0.004,15.924,-4.359,-2.916
0.139,0.963,-0.008,13.183,0.374,-4.481
0.090,0.973,0.016,8.824,0.282,-4.649
0.080,0.985,0.026,7.756,-0.565,-1.359
0.095,0.984,0.016,7.000,-0.557,0.641
0.121,0.987,0.015,7.435,-0.855,2.305
0.161,0.983,0.012,7.748,3.618,1.969
0.146,0.974,-0.005,2.901,2.748,-1.672
0.129,0.987,0.041,-0.023,2.542,-3.595
0.121,0.993,0.064,-0.725,4.466,-5.389

0.093,0.731,-1.049,-71.603,-108.382,-6.748
0.173,0.555,-1.568,-175.771,-99.015,15.420
0.486,0.291,-1.802,-250.137,-28.878,17.908
0.646,-0.233,-1.276,-250.137,42.107,-50.145
0.332,-0.519,-0.334,-250.137,106.366,-119.954
-0.425,-0.342,0.980,-250.137,80.725,-156.710
-0.908,-0.079,2.000,-250.137,79.122,-62.405
-0.740,0.213,2.000,-250.137,12.084,38.115
-0.134,0.112,2.000,-115.977,-42.618,49.000
0.063,0.181,2.000,71.267,-42.412,24.313
0.018,0.285,1.651,151.901,-36.840,27.710
0.108,0.366,1.208,175.321,-4.237,28.771
0.155,0.412,1.008,174.893,0.237,24.183
0.184,0.463,0.836,169.740,-4.092,13.366
0.126,0.534,0.717,160.160,-0.901,3.008
0.034,0.631,0.670,153.260,2.908,2.282
-0.006,0.658,0.625,150.374,11.710,7.924
-0.054,0.667,0.610,153.664,12.924,14.527
-0.065,0.669,0.537,160.153,18.893,22.321
-0.064,0.721,0.454,156.527,22.015,30.458
-0.022,0.768,0.419,145.092,24.031,40.641
0.067,0.744,0.414,132.351,21.618,47.756
0.170,0.769,0.439,123.443,21.336,45.901
0.234,0.771,0.447,121.282,16.260,36.840
0.237,0.772,0.430,124.878,16.122,27.031
0.240,0.787,0.385,128.168,12.420,17.595
0.179,0.807,0.318,129.573,12.687,12.282
0.154,0.848,0.280,124.229,1.847,12.160
0.186,0.848,0.200,118.695,1.969,10.282
0.178,0.885,0.167,106.611,8.832,5.023
0.166,0.888,0.151,100.031,6.565,4.298
0.191,0.893,0.122,96.916,11.832,1.489
0.185,0.895,0.093,90.229,9.252,-3.534
0.161,0.908,0.052,80.588,5.107,-10.443
0.127,0.917,0.018,72.252,2.092,-14.344
0.071,0.941,-0.021,61.519,9.718,-14.015
0.027,0.974,-0.008,45.137,7.282,-8.191
0.029,0.987,0.047,35.420,5.107,-0.450
0.067,0.974,0.087,36.748,4.855,5.466
0.110,0.960,0.070,38.382,2.847,4.969
0.109,0.940,0.070,41.038,-2.863,3.145
0.122,0.956,0.011,41.511,-0.191,1.534
0.088,0.978,-0.013,32.695,-2.595,0.359
0.110,0.980,-0.002,29.260,1.351,3.893
0.135,0.980,0.001,26.130,5.290,2.603
0.150,0.970,0.014,22.076,3.130,-0.267
0.135,0.971,0.023,18.779,1.771,-4.771
0.094,0.988,0.034,19.779,0.763,-3.588
0.091,0.994,0.017,20.511,2.282,-1.183
0.102,0.985,0.010,20.771,1.519,1.260

0.274,0.746,-0.890,-52.840,-37.939,-27.931
0.284,0.649,-1.301,-146.481,-41.962,-37.473
0.220,0.475,-1.510,-250.137,-11.832,-49.916
0.038,0.237,-1.347,-250.137,10.496,-63.405
-0.170,0.032,-0.650,-250.137,37.298,-65.053
-0.264,-0.014,0.241,-250.137,51.198,-54.000
-0.243,0.019,1.399,-250.137,12.321,-37.244
-0.221,0.145,2.000,-250.137,30.206,0.855
-0.166,0.195,2.000,-250.137,10.321,13.336
-0.007,0.181,2.000,-112.763,-10.908,3.557
-0.116,0.318,2.000,40.359,-16.679,-8.115
-0.176,0.409,1.631,104.580,-28.252,12.511
-0.035,0.443,1.310,130.305,-22.137,24.550
0.135,0.432,1.107,155.053,-5.573,23.908
0.195,0.469,0.938,171.702,3.817,11.183
0.134,0.540,0.814,181.450,4.557,-2.473
0.048,0.600,0.709,186.969,3.412,-6.305
-0.021,0.648,0.588,190.748,8.595,-1.351
-0.065,0.675,0.491,191.847,10.145,6.221
-0.082,0.682,0.365,186.061,11.618,13.328
-0.084,0.738,0.284,167.115,11.458,19.702
-0.037,0.805,0.245,137.779,15.298,27.695
0.029,0.843,0.296,112.023,17.092,34.634
0.081,0.826,0.386,99.534,16.962,36.740
0.151,0.792,0.457,102.885,10.489,31.473
0.139,0.802,0.440,111.580,4.573,20.832
0.080,0.826,0.385,118.053,5.260,13.641
0.034,0.882,0.335,118.611,7.252,18.206
0.072,0.904,0.322,120.221,9.496,25.198
0.114,0.889,0.321,126.580,11.321,29.221
0.176,0.863,0.290,134.710,8.626,24.145
0.207,0.849,0.210,141.557,3.084,16.107
0.182,0.847,0.102,143.641,0.779,5.496
0.138,0.865,-0.027,135.771,0.473,-2.107
0.073,0.933,-0.121,115.153,3.137,-5.336
0.049,0.973,-0.153,94.664,4.626,0.908
0.047,0.967,-0.125,78.672,7.130,7.366
0.069,0.964,-0.093,67.031,4.725,10.695
0.082,0.949,-0.072,61.656,2.817,11.214
0.082,0.955,-0.055,59.687,4.298,11.344
0.065,0.960,-0.051,59.153,0.282,13.786
0.116,0.962,-0.078,62.817,1.038,16.481
0.171,0.953,-0.115,61.702,2.153,15.702
0.215,0.955,-0.153,52.931,-0.939,10.344
0.207,0.949,-0.154,43.534,-3.885,1.618
0.173,0.954,-0.157,41.473,3.252,-2.687
0.138,0.981,-0.173,34.382,2.733,-5.061
0.105,0.981,-0.169,26.412,-1.618,-4.206
0.105,0.996,-0.172,18.802,0.893,-4.527
0.082,1.005,-0.153,14.000,-0.275,-1.191

0.147,0.739,-0.907,-63.275,-42.489,-19.534
0.193,0.587,-1.398,-145.702,-51.389,-20.351
0.180,0.375,-1.742,-250.137,-28.725,-18.870
0.276,0.085,-1.837,-250.137,-21.023,-35.878
0.304,-0.228,-1.110,-250.137,37.389,-63.366
-0.058,-0.443,0.067,-250.137,99.595,-93.519
-0.319,-0.342,1.430,-250.137,52.618,-90.405
-0.491,-0.153,2.000,-250.137,32.931,-36.023
-0.298,0.139,2.000,-250.137,5.374,1.802
-0.104,0.176,2.000,-26.412,-26.137,-8.069
-0.279,0.333,2.000,144.656,-46.908,1.214
-0.133,0.404,1.525,207.664,-26.473,21.740
-0.000,0.432,1.131,216.992,-7.191,28.496
0.095,0.472,0.880,210.389,-4.229,24.672
0.120,0.552,0.652,195.229,1.069,15.038
0.073,0.647,0.532,178.740,8.008,9.885
-0.018,0.726,0.520,162.168,7.229,8.824
-0.079,0.755,0.545,156.771,11.191,17.160
-0.080,0.753,0.529,165.649,18.405,28.931
-0.052,0.757,0.476,174.008,21.160,37.137
-0.015,0.745,0.388,177.481,14.168,42.046
0.064,0.751,0.262,170.580,9.702,43.336
0.140,0.793,0.163,148.939,5.939,38.336
0.179,0.826,0.134,124.565,3.649,32.603
0.193,0.853,0.167,109.252,7.061,27.023
0.180,0.862,0.199,102.656,9.504,23.412
0.186,0.873,0.195,96.397,8.611,19.534
0.167,0.885,0.199,91.809,1.435,15.672
0.184,0.900,0.181,92.168,4.580,13.763
0.173,0.915,0.164,87.290,2.740,8.427
0.131,0.921,0.176,88.206,-0.313,3.489
0.105,0.922,0.156,96.481,6.519,3.473
0.099,0.943,0.097,102.237,3.634,5.634
0.145,0.939,0.010,100.870,6.389,7.321
0.143,0.934,-0.039,89.649,1.618,1.069
0.097,0.959,-0.051,77.916,-4.969,-3.664
0.055,0.984,-0.067,72.664,-0.573,-1.168
0.030,0.990,-0.072,69.710,5.580,6.695
0.068,0.979,-0.095,65.542,5.580,13.802
0.140,0.975,-0.125,58.344,5.656,14.580
0.143,0.955,-0.112,48.817,-1.695,11.443
0.154,0.971,-0.092,49.229,-0.008,9.443
0.161,0.955,-0.114,53.092,2.931,9.878
0.172,0.949,-0.138,53.649,3.977,7.550
0.162,0.947,-0.177,50.489,2.534,5.382
0.185,0.960,-0.233,40.954,0.397,2.847
0.161,0.965,-0.250,27.061,-2.527,0.328
0.171,0.975,-0.241,16.855,2.832,-1.244
0.173,0.990,-0.207,10.931,9.656,-2.176
0.161,0.970,-0.138,10.565,10.244,-3.985

0.250,0.763,-0.834,-62.275,-35.710,-15.710
0.260,0.568,-1.296,-124.290,-57.244,-14.481
0.345,0.435,-1.864,-249.740,-76.160,-19.496
0.364,0.107,-2.000,-250.137,-49.069,-26.328
0.279,-0.415,-1.585,-250.137,60.328,-63.206
0.066,-0.621,-0.398,-250.137,127.511,-100.985
-0.269,-0.585,1.081,-250.137,82.031,-113.779
-0.474,-0.343,2.000,-250.137,6.985,-82.863
-0.461,0.069,2.000,-250.137,13.824,-27.145
-0.303,0.124,2.000,-121.466,-22.443,-13.053
-0.343,0.291,2.000,81.710,-41.794,-1.221
-0.182,0.347,1.722,163.771,-36.107,22.420
0.019,0.387,1.226,174.977,-13.885,29.985
0.127,0.448,1.011,167.382,-9.733,23.908
0.145,0.482,0.860,166.511,-5.206,13.298
0.079,0.594,0.746,171.573,3.076,3.099
-0.026,0.694,0.657,169.779,11.290,6.252
-0.079,0.713,0.655,167.611,13.489,14.802
-0.113,0.699,0.637,174.252,12.885,23.160
-0.104,0.710,0.573,183.595,16.115,33.046
-0.082,0.710,0.492,191.985,20.656,44.160
0.003,0.716,0.413,194.771,25.282,52.817
0.129,0.736,0.302,181.603,19.275,52.481
0.192,0.790,0.299,155.725,13.901,42.802
0.197,0.820,0.373,140.580,9.588,36.275
0.169,0.800,0.429,149.542,4.557,31.695
0.188,0.802,0.375,170.115,7.176,27.061
0.155,0.831,0.243,176.901,1.466,21.160
0.150,0.852,0.132,172.137,-2.733,19.198
0.191,0.871,0.019,162.336,-4.489,19.924
0.240,0.873,-0.090,145.718,-2.924,13.366
0.244,0.873,-0.169,125.115,-1.718,2.183
0.189,0.899,-0.228,102.290,0.290,-9.237
0.131,0.943,-0.256,75.863,3.840,-14.634
0.071,0.979,-0.233,53.069,5.122,-13.718
0.032,0.981,-0.188,39.214,4.702,-6.939
0.043,0.982,-0.126,34.985,5.733,1.550
0.063,0.951,-0.107,34.046,4.260,6.061
0.098,0.946,-0.114,33.649,-1.092,8.252
0.143,0.952,-0.141,28.107,-3.061,7.298
0.128,0.966,-0.158,21.466,-1.191,7.069
0.137,0.984,-0.104,16.649,1.221,8.137
0.184,0.968,-0.087,18.115,3.664,6.977
0.187,0.956,-0.073,19.374,2.458,3.168
0.185,0.964,-0.093,19.008,2.351,-2.061
0.138,0.978,-0.111,16.137,1.924,-3.191
0.119,0.997,-0.107,12.756,-2.046,-0.893
0.154,0.998,-0.105,11.618,-1.328,1.031
0.148,0.991,-0.094,12.298,-0.160,-0.366
0.142,0.986,-0.083,14.244,0.573,-2.481

0.240,0.671,-0.958,-51.053,-39.038,-19.084
0.286,0.486,-1.488,-124.107,-50.153,-27.061
0.359,0.396,-2.000,-250.137,-7.695,-38.534
0.454,0.036,-1.826,-250.137,34.015,-59.237
0.421,-0.351,-0.805,-250.137,75.252,-119.023
-0.260,-0.383,0.587,-250.137,68.809,-163.298
-0.584,-0.198,1.949,-250.137,-6.115,-129.748
-0.688,0.102,2.000,-250.137,3.252,-51.206
-0.591,0.317,2.000,-186.916,-1.466,1.611
-0.346,0.341,2.000,55.397,-30.122,21.198
-0.181,0.362,1.969,171.214,-46.450,33.153
0.028,0.389,1.386,217.252,-19.947,30.748
0.042,0.465,1.007,222.496,-12.626,20.695
0.003,0.565,0.750,213.534,-3.229,18.397
-0.021,0.634,0.645,202.626,5.275,18.351
-0.057,0.676,0.583,194.664,8.733,20.351
-0.125,0.706,0.543,191.366,6.847,22.672
-0.137,0.729,0.488,196.344,14.870,30.664
-0.096,0.743,0.406,202.489,23.687,41.641
-0.034,0.740,0.318,199.733,21.611,46.534
0.026,0.765,0.225,189.221,17.534,44.893
0.064,0.794,0.159,171.313,18.550,43.435
0.104,0.852,0.114,145.382,10.458,39.992
0.133,0.858,0.108,129.534,7.824,35.870
0.158,0.862,0.085,123.206,12.565,33.031
0.167,0.880,0.059,114.305,13.366,28.542
0.173,0.911,0.054,101.878,8.374,22.977
0.190,0.903,0.049,96.153,5.145,20.649
0.225,0.908,0.034,93.023,6.924,15.038
0.201,0.907,0.024,87.611,4.221,8.366
0.173,0.907,-0.005,84.397,-1.489,2.321
0.149,0.932,-0.042,81.412,0.183,-2.588
0.117,0.954,-0.100,74.687,0.595,-3.870
0.088,0.952,-0.149,64.237,0.534,-1.947
0.081,0.960,-0.154,51.527,0.519,-1.664
0.079,0.972,-0.144,42.870,5.527,0.053
0.073,0.978,-0.118,35.275,3.069,2.893
0.090,0.963,-0.103,31.817,1.718,3.977
0.103,0.965,-0.120,28.420,-0.282,3.947
0.109,0.963,-0.137,24.702,1.412,1.229
0.080,0.981,-0.130,20.618,4.977,1.611
0.082,0.999,-0.137,12.344,3.305,4.786
0.114,0.990,-0.106,6.321,0.870,6.557
0.152,0.984,-0.079,5.687,3.076,4.344
0.135,0.981,-0.039,7.962,0.061,0.252
0.126,0.982,-0.047,14.122,0.733,-1.641
0.108,0.979,-0.081,15.206,0.336,-2.809
0.075,0.998,-0.115,11.626,2.496,-2.496
0.060,1.015,-0.111,5.740,4.763,0.885
0.068,1.022,-0.069,-0.153,1.427,5.206

0.207,0.717,-0.910,-75.351,-53.214,-18.847
0.272,0.559,-1.571,-178.626,-84.351,-17.939
0.242,0.229,-2.000,-250.137,-99.748,-19.916
0.205,-0.154,-2.000,-250.137,-41.603,-31.260
0.173,-0.563,-0.597,-250.137,72.099,-57.443
0.048,-0.637,1.210,-250.137,101.176,-84.221
-0.329,-0.265,2.000,-250.137,85.626,-61.847
-0.298,0.109,2.000,-250.137,-11.382,-45.924
-0.270,0.298,2.000,-11.191,-32.168,-36.885
-0.502,0.397,2.000,142.198,-43.557,-2.198
-0.283,0.446,1.414,191.290,-28.740,32.748
0.040,0.419,0.993,199.550,11.550,44.962
0.182,0.477,0.836,184.046,19.550,32.427
0.159,0.554,0.716,168.069,10.794,17.870
0.086,0.628,0.633,162.687,14.618,10.122
-0.014,0.722,0.550,152.298,20.916,7.389
-0.069,0.806,0.607,135.924,25.710,11.969
-0.124,0.800,0.745,136.359,24.198,20.878
-0.139,0.753,0.829,159.679,22.252,29.336
-0.118,0.766,0.785,192.076,28.244,40.092
-0.067,0.722,0.654,218.031,25.420,49.328
-0.029,0.705,0.450,228.733,22.359,51.756
0.019,0.755,0.233,214.511,16.168,53.275
0.098,0.815,0.142,186.237,7.137,54.824
0.201,0.809,0.132,169.038,6.015,53.008
0.316,0.798,0.115,163.740,19.420,38.779
0.263,0.823,0.079,154.603,16.985,19.023
0.229,0.861,0.035,141.435,1.893,8.458
0.168,0.875,-0.013,133.389,-3.954,2.458
0.133,0.891,-0.058,128.374,-0.511,0.496
0.102,0.926,-0.104,121.412,4.649,1.275
0.118,0.936,-0.112,109.931,2.198,2.855
0.132,0.927,-0.140,100.061,-3.649,1.382
0.152,0.919,-0.188,92.924,-5.618,-1.542
0.167,0.945,-0.263,84.908,0.626,-4.412
0.115,0.949,-0.307,65.420,2.672,-7.443
0.069,0.980,-0.323,42.107,-0.427,-3.443
0.057,0.969,-0.290,26.969,2.137,2.641
0.089,0.976,-0.254,15.756,3.733,7.809
0.128,0.961,-0.215,8.527,3.374,8.443
0.162,0.956,-0.181,7.221,3.427,7.481
0.174,0.951,-0.168,5.756,3.267,2.053
0.154,0.971,-0.161,5.992,2.794,-2.206
0.133,0.975,-0.156,6.168,2.252,-3.374
0.126,0.990,-0.177,3.870,2.366,-4.496
0.099,0.994,-0.155,1.000,1.321,-4.336
0.093,1.005,-0.137,1.046,2.473,-2.298
0.089,1.010,-0.117,2.847,2.466,-0.115
0.095,1.003,-0.135,3.786,1.534,1.145
0.099,0.993,-0.157,2.672,0.947,1.718

0.212,0.748,-0.908,-72.443,-27.603,-12.076
0.251,0.608,-1.375,-157.817,-45.824,-14.466
0.299,0.357,-1.842,-250.137,-34.466,-23.397
0.373,0.005,-1.997,-250.137,-21.718,-46.618
0.347,-0.309,-1.508,-250.137,26.954,-93.626
-0.009,-0.402,-0.365,-250.137,62.405,-124.321
-0.345,-0.324,1.133,-250.137,57.664,-104.878
-0.554,0.002,2.000,-250.137,73.229,-44.649
-0.529,0.074,2.000,-250.137,-32.603,-11.168
-0.161,0.162,2.000,-118.756,-76.710,-5.305
-0.114,0.329,2.000,86.733,-49.969,-3.885
-0.158,0.366,1.774,159.321,-46.313,18.679
-0.012,0.388,1.183,179.206,-28.198,25.817
0.090,0.441,0.936,187.748,-5.084,26.282
0.116,0.492,0.790,197.061,17.366,19.702
0.099,0.571,0.679,196.328,19.802,13.344
0.037,0.647,0.569,190.702,18.725,9.725
-0.007,0.764,0.484,172.687,21.641,14.626
-0.014,0.811,0.511,154.366,20.244,21.443
-0.015,0.773,0.601,150.389,21.893,24.099
-0.035,0.748,0.658,161.962,23.107,25.481
-0.084,0.729,0.628,176.870,16.115,27.626
-0.071,0.753,0.471,191.023,12.130,33.870
0.003,0.771,0.307,194.405,18.527,40.718
0.070,0.810,0.171,176.786,20.321,42.496
0.104,0.848,0.130,148.031,8.244,38.046
0.172,0.861,0.146,129.870,7.489,35.481
0.214,0.862,0.169,120.603,9.748,28.863
0.211,0.872,0.164,116.053,10.504,20.954
0.217,0.859,0.130,112.931,9.336,13.366
0.144,0.898,0.091,107.412,7.031,4.450
0.109,0.931,0.054,104.802,4.542,5.305
0.111,0.926,0.021,103.229,7.031,10.366
0.170,0.922,-0.022,95.626,2.504,10.160
0.169,0.912,-0.066,85.687,-1.840,3.107
0.172,0.923,-0.113,73.809,-6.359,-2.420
0.163,0.938,-0.155,59.382,-10.305,-6.504
0.153,0.957,-0.200,42.496,-8.122,-7.664
0.104,0.966,-0.176,22.336,-9.473,-8.901
0.096,0.969,-0.139,13.282,-2.221,-6.969
0.072,0.975,-0.085,9.649,4.336,-5.076
0.025,0.994,-0.020,9.718,2.542,-0.550
0.059,0.997,0.010,16.122,0.771,5.962
0.112,0.990,-0.016,21.763,-0.824,8.977
0.161,0.974,-0.061,22.168,-1.695,4.962
0.160,0.989,-0.091,18.466,-0.084,-1.573
0.121,0.999,-0.085,15.832,7.313,-3.260
0.082,1.005,-0.070,12.145,8.443,-3.763
0.047,1.009,-0.018,13.405,10.458,-0.458
0.069,1.003,0.006,18.359,6.336,5.153

0.189,0.731,-0.904,-76.901,-20.145,-14.466
0.247,0.663,-1.340,-166.443,-28.366,-17.878
0.306,0.475,-1.550,-250.137,-12.809,-34.893
0.253,0.278,-1.361,-250.137,4.916,-56.878
0.145,0.089,-0.730,-250.137,53.282,-75.885
-0.047,-0.005,0.188,-250.137,51.198,-86.290
-0.151,0.064,1.210,-250.137,17.374,-85.435
-0.376,0.267,2.000,-250.137,9.504,-57.389
-0.447,0.436,2.000,-250.137,-0.008,-8.382
-0.238,0.443,2.000,-75.344,-27.733,9.046
-0.136,0.518,2.000,59.198,-39.115,13.061
-0.037,0.533,1.501,104.771,-35.878,23.115
0.080,0.525,1.169,122.557,-23.634,20.809
0.121,0.579,1.014,140.183,-5.748,12.031
0.028,0.618,0.969,160.695,4.794,11.374
-0.009,0.639,0.918,183.893,12.000,15.466
-0.047,0.671,0.813,203.160,13.588,19.366
-0.076,0.710,0.751,227.313,20.924,25.191
-0.094,0.698,0.675,250.130,37.076,36.427
-0.088,0.653,0.529,250.130,40.412,50.252
0.034,0.622,0.257,250.130,33.359,54.771
0.103,0.685,-0.034,250.130,19.435,45.672
0.109,0.786,-0.234,217.611,4.267,34.985
0.146,0.874,-0.301,168.244,8.260,30.328
0.128,0.915,-0.237,126.824,21.076,29.466
0.170,0.917,-0.078,101.878,29.489,31.153
0.178,0.906,0.022,91.771,18.275,26.183
0.182,0.892,0.034,91.092,5.313,22.206
0.190,0.904,-0.027,89.931,-0.115,17.305
0.195,0.935,-0.115,82.084,3.763,13.405
0.193,0.954,-0.130,72.046,6.496,12.802
0.211,0.949,-0.100,65.740,6.878,10.641
0.229,0.948,-0.109,60.679,6.794,5.206
0.201,0.941,-0.094,57.748,2.534,-0.427
0.186,0.947,-0.138,57.977,3.817,-4.046
0.137,0.957,-0.186,52.198,3.748,-5.260
0.130,0.979,-0.235,40.878,2.924,-1.504
0.138,0.974,-0.239,23.824,-2.038,-0.893
0.127,0.971,-0.179,16.992,-1.298,-1.954
0.116,0.986,-0.149,17.802,3.664,-1.191
0.109,0.986,-0.135,16.885,0.237,-0.061
0.111,0.979,-0.157,14.840,-1.267,-0.809
0.094,1.000,-0.159,13.580,0.221,0.344
0.123,0.993,-0.161,11.809,2.954,3.107
0.147,0.978,-0.154,8.267,-1.183,1.962
0.157,0.974,-0.156,6.099,1.023,-2.221
0.137,0.974,-0.165,2.412,-0.504,-4.107
0.115,0.997,-0.149,1.611,2.740,-5.053
0.093,1.010,-0.131,1.397,2.496,-0.214
0.111,0.998,-0.115,-0.198,-1.427,2.481

0.262,0.763,-0.808,-61.580,-28.832,-16.687
0.317,0.686,-1.210,-127.397,-24.122,-28.015
0.207,0.533,-1.536,-248.763,-22.328,-47.496
0.134,0.377,-1.519,-250.137,7.214,-46.061
0.127,0.095,-0.948,-250.137,34.450,-52.130
0.144,-0.112,-0.073,-250.137,22.504,-65.824
0.125,-0.061,0.958,-250.137,20.397,-84.626
-0.037,0.127,1.865,-250.137,-10.328,-99.740
-0.347,0.351,2.000,-250.137,16.885,-59.748
-0.397,0.465,2.000,-149.641,-9.450,-19.733
-0.231,0.455,2.000,19.794,-37.542,-7.130
-0.223,0.522,1.651,99.321,-35.092,12.786
-0.072,0.542,1.260,127.763,-15.962,25.870
0.059,0.531,1.078,150.435,-4.092,26.359
0.101,0.569,0.916,167.229,3.344,18.931
0.044,0.645,0.763,174.985,6.244,14.038
-0.007,0.676,0.666,176.901,10.397,15.382
-0.062,0.704,0.624,181.656,16.817,15.641
-0.087,0.743,0.568,192.489,28.244,23.725
-0.117,0.732,0.510,199.137,25.779,32.511
-0.061,0.737,0.404,201.267,22.687,40.756
0.017,0.740,0.240,193.618,16.748,43.824
0.076,0.797,0.112,167.740,16.565,40.458
0.101,0.871,0.129,132.702,11.153,36.786
0.120,0.883,0.238,117.244,10.481,37.863
0.156,0.862,0.278,121.069,12.366,34.908
0.167,0.861,0.265,127.672,9.885,30.481
0.132,0.868,0.207,132.313,5.137,25.504
0.139,0.896,0.135,135.313,5.496,25.153
0.143,0.904,0.060,130.534,4.611,25.687
0.203,0.901,0.004,123.496,-2.847,24.168
0.234,0.892,-0.054,118.351,0.595,17.137
0.219,0.892,-0.106,111.740,-0.504,9.130
0.198,0.905,-0.183,101.389,-0.794,3.527
0.157,0.920,-0.240,86.115,-0.527,0.145
0.123,0.959,-0.255,64.969,-0.588,0.336
0.130,0.963,-0.230,49.069,-2.389,5.885
0.177,0.932,-0.246,37.611,-1.427,7.504
0.208,0.948,-0.258,22.176,0.191,-0.328
0.152,0.970,-0.185,12.565,3.427,-2.588
0.136,0.974,-0.126,9.863,3.656,-0.779
0.141,0.983,-0.093,10.893,-1.397,-0.137
0.147,0.981,-0.094,14.374,-4.214,0.924
0.134,0.989,-0.110,14.214,-5.229,-1.130
0.139,0.991,-0.119,14.634,-3.473,-1.305
0.151,1.002,-0.141,13.298,3.603,-1.786
0.146,1.007,-0.146,7.939,4.000,-2.893
0.131,0.991,-0.135,3.229,4.779,-4.252
0.107,1.008,-0.113,-0.656,2.824,-3.885
0.087,1.006,-0.089,0.267,0.099,-1.137

0.272,0.771,-0.825,-70.099,-29.298,-23.000
0.338,0.641,-1.193,-146.473,-51.015,-29.947
0.337,0.418,-1.575,-250.137,-51.359,-41.779
0.376,0.114,-1.695,-250.137,-19.481,-65.672
0.242,-0.295,-0.939,-250.137,17.794,-100.282
0.083,-0.413,0.180,-250.137,61.527,-130.183
-0.248,-0.240,1.442,-250.137,34.565,-136.756
-0.632,0.105,2.000,-250.137,56.061,-69.664
-0.574,0.256,2.000,-249.573,-23.641,-19.412
-0.304,0.250,2.000,-34.573,-63.130,-4.725
-0.312,0.372,2.000,96.397,-68.481,7.626
-0.176,0.398,1.427,134.290,-46.748,31.595
0.018,0.421,1.161,144.588,-22.214,33.519
0.154,0.440,1.041,166.099,-0.519,22.779
0.100,0.529,0.966,179.595,10.427,4.015
-0.036,0.591,0.930,193.420,11.702,2.160
-0.099,0.632,0.835,210.969,10.305,7.748
-0.142,0.647,0.713,231.779,17.359,17.053
-0.167,0.673,0.583,249.290,26.664,31.282
-0.122,0.673,0.429,250.130,33.947,48.534
-0.071,0.716,0.278,243.221,20.366,55.863
0.029,0.741,0.147,217.122,11.092,60.473
0.146,0.778,0.063,187.840,9.237,59.298
0.252,0.787,0.018,162.748,13.031,51.099
0.304,0.802,-0.001,137.038,16.359,34.664
0.225,0.853,0.016,112.229,12.458,17.389
0.151,0.904,0.063,98.740,7.687,14.344
0.151,0.903,0.059,93.397,6.069,18.588
0.189,0.901,0.044,88.137,0.397,17.374
0.222,0.887,-0.007,83.366,-1.710,13.160
0.233,0.909,-0.055,71.489,1.183,2.489
0.187,0.957,-0.073,54.290,1.076,-4.053
0.152,0.955,-0.048,44.168,3.069,-5.198
0.110,0.959,-0.018,41.237,3.573,-5.649
0.077,0.949,-0.013,40.183,-1.076,-3.130
0.086,0.961,-0.041,40.168,-3.817,0.931
0.119,0.970,-0.100,36.076,-1.267,3.710
0.123,0.963,-0.121,23.489,-0.916,1.901
0.128,0.996,-0.101,13.275,0.779,1.260
0.115,0.983,-0.041,7.672,5.084,-0.351
0.103,0.971,0.021,8.893,3.885,-0.641
0.115,0.985,0.016,13.107,1.206,0.214
0.111,0.989,-0.023,12.931,-1.374,0.008
0.140,0.995,-0.046,8.725,0.450,0.305
0.121,1.002,-0.036,2.183,0.466,-1.557
0.117,1.001,-0.005,1.527,3.626,-1.939
0.106,0.996,0.023,4.855,7.153,-1.672
0.092,0.989,0.028,7.298,1.710,-1.313
0.100,0.996,0.004,10.298,0.420,1.137
0.130,0.997,-0.035,9.023,-1.603,3.107

0.295,0.745,-0.752,-81.649,-65.069,-17.389
0.373,0.635,-1.259,-170.366,-85.794,-28.252
0.276,0.413,-1.555,-250.137,-69.000,-39.031
0.349,0.159,-1.511,-250.137,0.588,-63.008
0.169,-0.120,-0.770,-250.137,36.641,-93.267
-0.130,-0.198,0.467,-250.137,60.046,-104.038
-0.304,-0.054,2.000,-250.137,70.611,-65.099
-0.411,0.124,2.000,-250.137,35.344,-31.000
-0.296,0.152,2.000,-212.519,-37.092,-18.985
-0.188,0.258,2.000,3.664,-41.275,-13.779
-0.305,0.374,1.875,78.985,-53.824,5.947
-0.082,0.378,1.346,103.534,-40.275,22.878
0.035,0.401,1.126,110.924,-28.519,22.908
0.120,0.457,1.007,129.183,-15.702,13.786
0.119,0.518,0.905,143.916,0.595,3.473
0.053,0.548,0.867,156.130,12.481,-3.053
-0.035,0.592,0.817,168.038,10.382,-5.496
-0.106,0.604,0.719,184.870,10.992,-0.344
-0.145,0.622,0.564,195.519,12.695,6.466
-0.154,0.662,0.412,194.817,14.687,16.519
-0.128,0.723,0.268,176.840,17.092,31.473
-0.058,0.751,0.171,144.382,13.206,43.252
0.045,0.773,0.154,104.427,9.901,46.603
0.150,0.797,0.215,70.847,5.069,43.328
0.237,0.802,0.306,52.344,11.168,35.771
0.250,0.803,0.393,46.321,8.985,24.313
0.212,0.806,0.405,48.069,3.977,13.267
0.144,0.849,0.394,49.069,1.420,7.382
0.101,0.870,0.404,50.802,0.069,10.649
0.122,0.869,0.391,54.969,0.450,15.183
0.178,0.841,0.366,62.885,2.977,16.519
0.231,0.845,0.315,65.962,8.771,9.168
0.184,0.863,0.303,64.374,2.573,-1.542
0.138,0.883,0.299,66.321,1.710,-6.221
0.091,0.899,0.279,66.313,10.176,-6.763
0.055,0.899,0.263,63.435,4.687,-3.481
0.072,0.900,0.227,62.107,2.145,-0.053
0.094,0.885,0.163,58.817,4.679,1.084
0.117,0.902,0.096,46.702,4.145,-3.847
0.067,0.932,0.073,30.336,2.229,-6.985
0.031,0.969,0.108,13.282,6.198,-0.679
0.051,0.962,0.172,2.458,4.099,7.466
0.121,0.939,0.251,0.237,5.565,7.725
0.137,0.923,0.308,7.321,7.260,3.130
0.138,0.914,0.297,15.908,7.069,-1.160
0.123,0.928,0.252,19.443,6.160,-5.794
0.051,0.949,0.220,16.588,-1.435,-3.397
0.066,0.959,0.207,13.450,1.115,1.771
0.087,0.946,0.202,11.634,2.450,4.176
0.124,0.946,0.208,11.580,4.214,3.435

0.163,0.592,-1.140,-65.847,-127.023,-4.427
0.223,0.409,-2.000,-199.130,-59.260,10.107
0.585,0.102,-2.000,-250.137,18.084,-8.267
0.594,-0.552,-1.251,-250.137,82.137,-78.908
0.357,-0.852,0.330,-250.137,167.985,-149.153
-0.598,-0.578,2.000,-250.137,181.168,-141.794
-1.077,-0.184,2.000,-250.137,61.328,-66.420
-0.679,-0.068,2.000,-136.802,-61.634,-20.916
-0.481,0.123,2.000,109.710,-66.382,8.397
-0.259,0.121,1.916,208.351,-66.954,52.672
0.056,0.096,1.364,250.130,-40.015,54.649
0.170,0.172,0.984,250.130,-10.962,39.450
0.135,0.317,0.642,250.130,-0.450,16.550
0.077,0.457,0.396,233.527,0.008,2.198
-0.008,0.614,0.312,190.702,4.679,-5.221
-0.076,0.721,0.332,150.328,13.832,2.443
-0.117,0.707,0.398,125.183,15.412,12.458
-0.123,0.695,0.422,115.870,13.786,19.580
-0.164,0.712,0.395,105.779,14.878,29.023
-0.139,0.783,0.388,85.832,8.809,42.305
-0.029,0.784,0.450,69.328,7.855,58.313
0.137,0.767,0.525,64.000,6.840,63.000
0.278,0.735,0.557,67.076,11.618,54.580
0.329,0.732,0.585,72.206,12.817,39.649
0.291,0.745,0.587,79.725,7.931,23.496
0.207,0.759,0.570,87.542,2.115,16.580
0.154,0.792,0.522,94.733,-3.550,14.656
0.148,0.823,0.448,97.328,-2.160,16.275
0.138,0.840,0.410,97.779,0.939,17.191
0.175,0.839,0.385,103.038,5.275,17.000
0.217,0.832,0.337,108.649,6.565,14.076
0.205,0.842,0.262,109.992,0.641,5.527
0.188,0.830,0.192,106.916,-1.481,-1.947
0.127,0.862,0.107,94.595,-4.015,-9.595
0.081,0.908,0.050,75.878,-5.588,-12.802
0.043,0.939,0.028,59.725,0.282,-7.412
0.040,0.950,0.029,47.985,5.473,2.802
0.070,0.928,0.029,36.336,6.878,10.595
0.135,0.921,0.055,22.023,4.939,10.748
0.156,0.930,0.096,13.504,1.580,7.122
0.154,0.937,0.145,9.351,3.427,4.992
0.145,0.928,0.176,8.435,2.267,3.771
0.145,0.952,0.197,9.466,3.183,1.260
0.115,0.958,0.212,11.817,6.015,2.466
0.137,0.955,0.208,13.328,4.855,5.366
0.171,0.955,0.187,12.779,1.733,2.237
0.169,0.948,0.187,11.924,3.878,0.000
0.147,0.955,0.197,11.061,3.611,-1.061
0.128,0.959,0.233,12.756,1.962,-2.420
0.103,0.960,0.237,16.992,-0.076,-1.328

0.210,0.659,-1.000,-88.634,-95.275,-18.489
0.331,0.524,-1.620,-204.359,-33.954,-20.176
0.318,0.254,-1.800,-250.137,27.092,-47.168
0.270,-0.124,-1.249,-250.137,66.824,-73.244
0.242,-0.342,-0.259,-250.137,93.008,-108.115
-0.248,-0.364,1.482,-250.137,137.992,-105.389
-0.808,-0.099,2.000,-250.137,105.366,-46.786
-0.575,-0.068,2.000,-250.137,-16.656,-6.802
-0.188,-0.006,2.000,-94.504,-60.733,-6.977
-0.230,0.171,2.000,64.313,-61.420,-1.595
-0.185,0.205,1.694,125.282,-57.786,24.412
0.024,0.227,1.377,147.595,-44.008,31.061
0.164,0.278,1.150,172.603,-31.870,21.107
0.167,0.343,0.929,191.076,-5.015,4.443
0.077,0.469,0.806,188.710,7.779,-5.473
-0.029,0.546,0.799,189.076,16.672,-4.000
-0.067,0.589,0.775,197.977,12.687,-0.260
-0.115,0.571,0.682,212.137,14.924,8.832
-0.121,0.601,0.506,220.756,20.053,17.847
-0.130,0.673,0.358,208.687,24.328,25.992
-0.119,0.761,0.281,179.435,25.511,39.122
-0.038,0.811,0.296,146.573,23.405,54.160
0.081,0.761,0.375,126.634,27.695,61.244
0.191,0.746,0.458,117.725,22.321,53.870
0.224,0.741,0.464,114.916,15.878,41.351
0.205,0.766,0.465,113.802,0.260,27.046
0.154,0.794,0.437,120.275,-7.084,21.771
0.176,0.814,0.314,122.076,-2.481,19.099
0.177,0.846,0.241,111.290,-7.733,16.214
0.189,0.878,0.181,97.260,-4.817,10.344
0.144,0.888,0.212,88.595,-1.885,5.237
0.149,0.887,0.236,91.908,3.412,3.405
0.107,0.896,0.208,96.031,3.481,3.580
0.098,0.898,0.152,96.802,-3.023,4.084
0.115,0.921,0.070,91.885,-5.519,3.267
0.131,0.922,0.003,80.656,-6.420,3.573
0.129,0.932,-0.038,67.260,-4.794,2.710
0.118,0.933,-0.052,50.603,0.023,1.229
0.113,0.962,-0.025,38.290,5.115,0.519
0.082,0.958,0.028,30.183,7.321,2.435
0.097,0.963,0.079,28.664,6.840,5.206
0.127,0.957,0.085,28.916,2.527,8.412
0.157,0.959,0.079,26.977,-0.496,6.931
0.161,0.954,0.061,24.382,-0.588,2.328
0.142,0.978,0.037,20.649,3.511,-0.084
0.124,0.985,0.020,12.710,2.374,-0.214
0.121,0.989,0.069,8.130,1.870,1.427
0.125,0.999,0.090,9.435,5.122,2.725
0.122,0.984,0.134,13.916,5.122,2.504
0.137,0.973,0.143,22.412,5.542,2.832

0.175,0.779,-0.817,-91.603,-31.038,-2.321
0.276,0.673,-0.985,-175.221,-40.214,0.336
0.389,0.496,-1.061,-250.137,-22.298,-12.160
0.430,0.374,-1.002,-250.137,17.725,-46.061
0.283,0.252,-0.555,-250.137,31.870,-75.321
0.160,0.115,0.124,-250.137,57.313,-86.214
-0.020,0.050,0.971,-250.137,77.397,-97.023
-0.185,0.078,1.886,-250.137,55.939,-95.382
-0.339,0.185,2.000,-250.137,54.641,-59.954
-0.358,0.409,2.000,-145.527,1.595,-32.992
-0.307,0.440,2.000,27.786,-36.023,-13.969
-0.246,0.477,1.673,106.244,-46.321,10.420
-0.033,0.479,1.172,134.000,-24.229,17.786
0.046,0.497,0.884,143.069,-12.076,14.122
0.081,0.560,0.782,146.695,10.511,3.656
0.015,0.622,0.787,150.260,24.855,1.038
-0.033,0.670,0.791,154.412,21.695,4.290
-0.089,0.640,0.743,173.313,10.481,9.000
-0.084,0.639,0.529,201.779,20.641,13.969
-0.100,0.701,0.336,197.557,35.847,20.145
-0.089,0.795,0.271,163.122,25.756,29.756
-0.042,0.828,0.295,130.641,17.969,41.550
0.058,0.814,0.356,111.427,16.076,45.160
0.141,0.800,0.411,102.924,11.504,39.641
0.151,0.789,0.430,102.985,6.649,28.481
0.135,0.827,0.390,108.763,2.641,19.931
0.112,0.873,0.323,107.855,3.038,16.298
0.115,0.883,0.281,105.458,1.252,18.038
0.144,0.874,0.239,104.702,3.710,17.679
0.149,0.879,0.203,102.863,2.198,12.092
0.129,0.885,0.146,99.038,2.870,7.740
0.107,0.912,0.080,87.710,-2.962,4.122
0.072,0.921,0.055,75.130,-4.244,1.519
0.032,0.953,0.065,69.534,-0.511,4.145
0.056,0.950,0.053,67.008,0.947,11.695
0.092,0.938,0.031,60.351,2.366,12.397
0.111,0.930,0.009,53.160,0.458,10.557
0.115,0.961,0.019,48.031,3.053,9.214
0.109,0.947,0.016,42.901,1.031,10.069
0.135,0.954,0.000,37.924,-2.893,8.687
0.143,0.954,-0.030,33.725,-0.656,7.374
0.148,0.958,-0.052,25.290,1.344,3.405
0.105,0.981,-0.028,16.550,0.534,2.183
0.100,0.990,0.012,12.855,-0.519,5.237
0.144,0.985,0.021,12.198,0.985,7.641
0.158,0.970,0.044,12.550,1.618,3.824
0.161,0.966,0.049,15.756,1.618,-0.519
0.135,0.979,0.022,16.534,2.374,-4.405
0.083,0.985,0.002,14.740,0.137,-4.252
0.048,0.991,-0.001,13.450,2.229,-0.069

0.243,0.744,-0.837,-65.931,-54.527,-17.420
0.325,0.612,-1.326,-175.183,-58.382,-26.252
0.274,0.325,-1.662,-250.137,-33.580,-36.443
0.413,0.045,-1.582,-250.137,23.328,-67.588
0.227,-0.394,-0.686,-250.137,91.794,-110.916
-0.108,-0.361,0.789,-250.137,128.733,-143.542
-0.810,0.165,2.000,-250.137,159.878,-84.328
-0.922,0.204,2.000,-250.137,22.473,-2.557
-0.405,0.111,2.000,-164.496,-95.496,18.137
-0.132,0.166,2.000,24.038,-91.214,13.427
-0.207,0.342,1.890,130.679,-79.321,22.916
-0.040,0.303,1.365,166.924,-60.473,40.870
0.070,0.357,1.114,200.504,-31.802,34.359
0.146,0.407,0.889,219.137,-11.336,26.695
0.171,0.467,0.683,214.359,-6.176,8.489
0.098,0.580,0.525,197.298,-3.794,-8.466
-0.025,0.732,0.432,173.427,2.374,-12.115
-0.120,0.777,0.429,157.374,16.221,2.527
-0.139,0.749,0.460,149.489,29.969,23.046
-0.116,0.740,0.471,143.237,20.771,36.153
-0.049,0.745,0.445,141.412,14.130,44.863
0.059,0.772,0.390,136.374,12.473,48.206
0.090,0.827,0.402,127.878,5.992,46.809
0.169,0.812,0.413,130.466,13.779,49.718
0.245,0.800,0.398,136.359,11.374,42.756
0.301,0.802,0.312,139.061,12.351,28.550
0.248,0.815,0.270,135.176,5.992,15.527
0.223,0.836,0.231,132.962,6.389,7.260
0.171,0.878,0.198,131.565,13.405,1.847
0.150,0.888,0.182,131.458,13.954,2.687
0.125,0.889,0.164,134.031,12.687,4.733
0.157,0.877,0.094,137.809,10.198,3.405
0.162,0.896,0.011,135.702,10.603,-0.450
0.152,0.910,-0.098,121.313,5.092,-3.947
0.126,0.929,-0.171,98.611,1.000,-6.885
0.115,0.954,-0.221,75.107,2.145,-8.389
0.087,0.982,-0.217,48.603,2.481,-6.557
0.074,0.984,-0.184,28.450,1.435,-3.458
0.078,0.975,-0.102,21.298,4.389,1.634
0.104,0.974,-0.068,18.832,3.763,4.412
0.127,0.970,-0.036,17.618,-1.107,3.855
0.139,0.966,-0.036,19.351,-1.351,0.901
0.135,0.983,-0.048,17.718,0.534,-2.702
0.118,1.006,-0.045,12.794,2.069,-4.885
0.095,1.003,-0.042,8.313,2.145,-4.244
0.089,1.018,-0.054,4.031,3.191,-1.954
0.100,1.009,-0.049,0.427,3.145,0.092
0.114,1.009,-0.030,-2.191,2.534,0.092
0.115,0.996,-0.019,-1.015,3.122,-0.115
0.107,0.986,-0.002,1.618,1.267,-0.863

0.191,0.557,-1.068,-126.115,-76.008,-23.885
0.160,0.350,-1.613,-233.718,-73.611,-29.084
0.158,0.247,-1.905,-250.137,-14.176,-37.015
0.212,0.132,-1.480,-250.137,47.618,-55.382
0.083,-0.182,-0.332,-250.137,90.885,-66.649
-0.044,-0.254,1.312,-250.137,130.511,-58.084
-0.470,-0.057,2.000,-250.137,165.611,-15.901
-0.512,-0.105,2.000,-250.137,25.298,4.359
-0.240,-0.027,2.000,-162.542,-65.282,-3.954
-0.201,0.182,2.000,50.618,-70.107,-0.725
-0.275,0.242,2.000,154.809,-92.809,32.031
0.067,0.244,1.583,220.183,-76.504,41.450
0.223,0.239,1.268,250.130,-36.588,29.954
0.242,0.331,0.911,250.130,-12.855,6.427
0.159,0.489,0.628,250.130,-17.107,-13.435
0.014,0.645,0.483,237.000,-12.916,-13.069
-0.038,0.713,0.417,216.099,-1.832,-3.733
-0.100,0.693,0.372,208.122,10.565,7.466
-0.092,0.699,0.325,199.305,15.580,14.763
-0.112,0.751,0.270,184.290,5.832,19.756
-0.083,0.810,0.237,169.168,6.771,29.779
-0.025,0.838,0.224,155.527,6.237,41.649
0.101,0.828,0.225,150.260,17.260,49.008
0.210,0.818,0.218,144.580,15.840,44.397
0.268,0.809,0.195,137.595,8.183,33.206
0.276,0.809,0.160,133.389,3.267,19.290
0.237,0.837,0.111,129.817,6.847,7.542
0.203,0.909,0.039,119.221,6.076,4.137
0.170,0.932,0.012,103.061,0.046,4.947
0.177,0.924,0.045,96.374,-0.061,6.328
0.202,0.910,0.092,102.481,8.649,6.008
0.240,0.898,0.110,112.405,5.023,1.397
0.262,0.890,0.050,118.626,-3.656,-7.145
0.219,0.915,-0.136,97.809,-26.511,-14.290
0.193,0.956,-0.217,83.840,-14.038,-24.847
0.079,1.001,-0.242,62.137,-6.893,-22.824
0.048,0.993,-0.243,43.603,-3.435,-14.038
0.054,1.009,-0.266,23.847,0.176,-5.107
0.068,0.989,-0.229,6.809,4.099,0.763
0.110,0.979,-0.158,-2.405,8.786,0.931
0.120,0.982,-0.078,-4.046,7.779,-1.458
0.098,0.977,-0.019,2.733,4.595,-2.901
0.077,0.990,-0.034,10.290,2.977,-1.252
0.072,1.002,-0.101,10.214,2.939,0.794
0.072,1.001,-0.113,4.740,3.947,2.458
0.103,0.999,-0.103,1.802,6.695,4.794
0.134,1.004,-0.097,-2.344,6.160,5.130
0.170,1.010,-0.086,-6.870,8.061,2.008
0.146,0.993,-0.038,-5.229,8.252,0.046
0.120,0.986,0.001,1.885,4.313,-0.115

0.226,0.767,-0.818,-103.901,-47.359,-23.282
0.232,0.703,-1.126,-197.748,-57.794,-27.298
0.220,0.552,-1.258,-250.137,-32.092,-36.534
0.074,0.319,-0.991,-250.137,-4.481,-49.809
-0.021,0.218,-0.422,-250.137,37.748,-46.679
-0.077,0.258,0.334,-250.137,42.053,-43.893
-0.011,0.290,1.453,-250.137,75.244,-25.183
0.036,0.373,1.892,-250.137,47.733,-22.076
0.027,0.324,2.000,-248.718,3.901,-35.267
-0.100,0.400,2.000,-118.756,2.275,-44.817
-0.393,0.616,1.929,-14.336,-19.237,-23.885
-0.324,0.643,1.633,38.420,-22.206,23.748
-0.068,0.506,1.512,80.130,-33.038,41.458
0.114,0.492,1.195,114.916,-44.015,35.252
0.166,0.527,0.908,132.534,-33.321,20.153
0.132,0.608,0.819,153.511,-5.527,4.397
0.057,0.646,0.739,168.267,3.336,1.740
-0.002,0.644,0.637,183.069,3.718,1.443
-0.040,0.670,0.466,193.092,6.389,1.351
-0.093,0.721,0.309,186.885,16.237,8.916
-0.101,0.774,0.210,166.847,19.542,20.206
-0.067,0.803,0.173,139.603,19.817,31.000
0.022,0.824,0.208,110.840,19.183,39.389
0.103,0.824,0.253,90.427,18.824,40.397
0.143,0.833,0.332,79.053,10.924,35.931
0.221,0.837,0.328,79.466,15.725,31.748
0.226,0.820,0.301,72.405,9.008,20.985
0.191,0.869,0.276,61.275,0.313,9.916
0.143,0.910,0.292,55.916,1.527,10.046
0.128,0.906,0.342,57.397,3.221,15.153
0.183,0.889,0.337,65.214,1.588,16.595
0.213,0.865,0.285,71.504,2.038,10.924
0.200,0.877,0.232,72.267,2.344,0.275
0.118,0.926,0.212,69.160,3.115,-4.260
0.081,0.947,0.208,68.725,3.076,-0.282
0.087,0.935,0.191,71.244,2.275,6.107
0.114,0.918,0.132,71.031,-1.115,8.130
0.153,0.916,0.060,65.916,-3.336,4.107
0.154,0.943,0.011,54.840,0.763,-0.443
0.118,0.958,-0.009,38.672,2.313,-1.641
0.114,0.968,0.007,24.282,0.565,-0.580
0.124,0.970,0.035,15.733,4.389,1.557
0.114,0.965,0.064,8.382,3.466,1.687
0.135,0.960,0.090,5.863,3.840,2.153
0.135,0.965,0.098,2.962,8.168,-0.832
0.081,0.974,0.151,1.855,5.595,-1.664
0.084,0.995,0.190,8.580,4.458,2.863
0.117,0.978,0.174,18.031,0.878,8.084
0.160,0.968,0.137,22.779,-0.435,6.557
0.179,0.952,0.078,21.115,0.321,2.870

0.233,0.681,-0.937,-72.046,-52.771,-19.435
0.300,0.518,-1.353,-162.527,-40.710,-17.756
0.443,0.351,-1.577,-250.137,-4.695,-38.046
0.420,0.106,-1.212,-250.137,42.008,-86.221
0.207,-0.130,-0.345,-250.137,97.588,-123.595
-0.133,-0.061,0.784,-250.137,114.405,-149.115
-0.734,0.030,2.000,-250.137,158.870,-83.672
-1.051,0.165,2.000,-250.137,63.374,-7.328
-0.611,0.177,2.000,-150.107,-38.893,29.206
-0.331,0.194,2.000,39.023,-85.099,34.389
-0.205,0.313,1.936,149.985,-94.122,43.687
0.075,0.275,1.401,199.962,-74.992,45.160
0.176,0.306,1.076,237.885,-41.427,23.084
0.156,0.441,0.794,247.458,-17.107,0.481
0.047,0.564,0.599,228.420,-13.237,-9.672
-0.044,0.645,0.473,209.069,-5.359,-6.260
-0.091,0.674,0.351,193.382,-0.099,1.473
-0.119,0.690,0.207,177.504,5.954,9.664
-0.134,0.756,0.092,146.550,10.115,18.817
-0.114,0.813,0.054,104.466,11.443,33.084
-0.028,0.861,0.118,61.695,10.985,45.382
0.103,0.833,0.281,34.534,8.924,49.603
0.219,0.821,0.433,27.397,17.595,41.336
0.222,0.801,0.551,31.336,19.664,28.847
0.171,0.803,0.646,43.588,7.870,20.229
0.150,0.793,0.654,71.313,-2.389,18.038
0.172,0.827,0.566,100.893,-0.603,17.473
0.183,0.827,0.439,114.573,-0.008,16.282
0.183,0.838,0.340,113.718,-0.802,12.267
0.159,0.866,0.280,104.473,-3.527,7.282
0.106,0.892,0.272,95.863,-4.611,1.366
0.080,0.918,0.294,95.061,1.351,-1.099
0.023,0.910,0.298,101.076,3.015,4.198
0.047,0.914,0.267,110.405,0.985,11.374
0.099,0.887,0.162,114.405,-3.969,15.412
0.150,0.871,0.052,110.328,-6.824,10.939
0.179,0.903,-0.074,95.069,-7.435,3.466
0.135,0.936,-0.122,67.489,-6.954,-4.214
0.100,0.965,-0.105,44.153,-1.298,-2.145
0.079,0.984,-0.053,25.885,9.527,1.550
0.084,0.980,0.043,17.443,7.374,8.191
0.132,0.955,0.110,20.237,5.847,11.473
0.168,0.941,0.102,23.527,0.740,9.244
0.194,0.954,0.062,23.534,0.038,4.534
0.181,0.965,0.012,17.435,0.008,0.931
0.184,0.981,-0.004,9.244,3.847,-2.771
0.162,0.975,0.039,3.756,3.771,-4.191
0.131,0.976,0.094,4.023,4.359,-5.496
0.109,0.978,0.100,6.427,2.191,-4.550
0.091,0.985,0.077,9.076,0.168,-1.573

0.206,0.686,-0.911,-111.061,-43.099,-29.840
0.283,0.521,-1.301,-199.519,-15.985,-30.649
0.394,0.400,-1.383,-250.137,38.641,-53.954
0.318,0.092,-0.888,-250.137,65.733,-92.130
0.097,-0.042,-0.075,-250.137,90.405,-127.924
-0.252,0.049,1.082,-250.137,77.023,-132.427
-0.648,0.193,2.000,-250.137,132.870,-69.947
-0.865,0.329,2.000,-250.137,43.214,-6.969
-0.524,0.300,2.000,-66.244,-34.901,21.206
-0.282,0.335,2.000,89.008,-66.328,21.282
-0.201,0.441,1.548,142.252,-86.267,35.985
0.053,0.375,1.087,162.634,-67.618,37.473
0.190,0.443,0.790,169.885,-34.061,13.771
0.140,0.556,0.614,157.794,-14.298,-4.107
0.014,0.650,0.559,140.656,-9.718,-10.687
-0.111,0.707,0.500,131.725,-3.740,-4.069
-0.141,0.740,0.433,129.290,1.061,4.939
-0.174,0.748,0.387,125.145,5.763,16.756
-0.143,0.755,0.349,115.176,13.046,31.542
-0.100,0.771,0.326,93.534,8.763,39.351
-0.034,0.814,0.374,69.855,5.084,44.878
0.077,0.816,0.506,60.550,12.389,48.427
0.125,0.792,0.627,65.878,11.481,45.687
0.182,0.782,0.694,80.863,7.702,37.748
0.169,0.765,0.707,103.267,2.412,30.481
0.183,0.784,0.626,127.252,1.985,23.496
0.137,0.796,0.499,143.893,4.160,20.557
0.116,0.830,0.370,148.977,-1.786,20.771
0.146,0.847,0.267,146.130,-3.031,20.267
0.176,0.851,0.169,136.985,-5.908,14.412
0.176,0.859,0.101,125.641,-5.634,8.863
0.175,0.867,0.031,110.519,-4.809,0.855
0.134,0.886,-0.021,93.802,-3.023,-6.305
0.079,0.908,-0.079,73.679,-0.252,-9.122
0.042,0.947,-0.088,52.672,1.847,-8.160
0.014,0.973,-0.045,35.137,2.557,0.649
0.022,0.961,0.031,27.053,2.740,9.740
0.089,0.954,0.113,28.771,6.481,15.298
0.137,0.941,0.130,32.740,2.550,15.336
0.183,0.930,0.095,34.756,1.725,9.405
0.183,0.955,0.037,28.473,0.763,2.321
0.148,0.982,0.010,18.107,2.489,-1.084
0.126,0.984,0.045,10.389,5.550,-0.038
0.115,0.980,0.105,9.145,2.511,0.733
0.141,0.978,0.133,16.061,4.450,0.634
0.128,0.973,0.143,21.351,2.359,-0.275
0.130,0.971,0.120,25.298,-0.229,-0.519
0.127,0.979,0.058,23.870,0.366,-2.069
0.124,0.984,0.022,17.725,0.771,-3.550
0.083,0.979,0.030,12.183,-0.458,-4.718

0.265,0.684,-0.862,-86.863,-50.000,-40.160
0.152,0.623,-1.177,-157.038,-57.687,-46.206
0.140,0.541,-1.314,-250.137,-22.031,-32.344
0.193,0.336,-1.107,-250.137,-5.458,-31.786
0.266,0.157,-0.549,-250.137,18.374,-51.847
0.160,0.067,0.305,-250.137,61.282,-83.519
-0.072,0.006,1.393,-250.137,69.733,-100.405
-0.458,0.063,2.000,-250.137,104.168,-69.679
-0.691,0.317,2.000,-224.565,62.969,-23.870
-0.508,0.356,2.000,-9.504,-20.809,11.580
-0.339,0.388,2.000,131.237,-73.069,26.023
-0.084,0.374,1.439,191.924,-69.550,39.008
0.132,0.394,0.943,217.267,-27.542,23.412
0.104,0.485,0.687,215.649,-0.786,-0.611
-0.039,0.623,0.537,197.489,1.603,-8.954
-0.143,0.729,0.421,170.305,2.870,0.321
-0.170,0.785,0.401,146.229,5.496,13.847
-0.141,0.774,0.421,133.824,8.183,25.733
-0.129,0.752,0.464,132.824,19.267,36.290
-0.124,0.749,0.468,135.794,16.260,43.359
-0.045,0.779,0.416,134.260,9.351,51.405
0.038,0.810,0.364,127.962,9.618,56.435
0.149,0.830,0.350,119.237,7.275,55.939
0.248,0.804,0.362,118.649,10.863,49.351
0.300,0.803,0.348,121.336,15.229,35.534
0.283,0.818,0.320,120.053,10.939,18.718
0.204,0.857,0.299,118.053,3.779,8.893
0.156,0.872,0.258,120.076,0.779,6.489
0.150,0.871,0.196,122.038,1.290,6.053
0.133,0.886,0.117,119.420,-2.908,2.542
0.125,0.897,0.048,113.237,-3.779,0.069
0.099,0.917,-0.015,103.130,-2.237,-2.168
0.069,0.925,-0.060,89.313,-1.366,-2.412
0.061,0.939,-0.119,73.786,-2.580,-0.458
0.063,0.955,-0.143,54.794,1.710,-0.115
0.056,0.972,-0.089,39.137,5.382,2.229
0.046,0.969,-0.035,31.634,5.885,5.260
0.066,0.956,-0.006,29.878,2.435,8.206
0.082,0.965,0.001,31.427,3.817,9.443
0.109,0.976,0.003,30.550,5.977,8.611
0.097,0.997,0.022,27.443,3.901,9.336
0.119,0.991,0.019,25.656,3.015,11.015
0.148,0.984,0.006,24.237,5.519,9.794
0.158,0.988,-0.005,19.611,2.221,6.252
0.155,0.990,0.013,16.000,2.397,2.313
0.132,0.994,0.019,15.366,2.534,0.244
0.116,0.989,0.062,19.885,1.420,0.458
0.111,0.987,0.058,28.359,0.985,2.092
0.119,0.980,0.007,33.382,-1.290,1.443
0.107,0.986,-0.062,32.183,-3.153,1.168

0.068,0.486,-1.325,-88.603,-105.481,0.542
0.124,0.353,-1.912,-207.069,-33.458,13.908
0.202,0.195,-2.000,-250.137,6.733,13.481
0.383,0.002,-1.434,-250.137,52.168,-19.962
0.250,-0.260,-0.233,-250.137,106.458,-60.061
-0.039,-0.456,1.406,-250.137,124.626,-89.893
-0.341,-0.200,2.000,-250.137,112.481,-61.313
-0.513,0.199,2.000,-205.267,52.527,-26.702
-0.412,0.339,2.000,75.809,-44.885,-15.481
-0.374,0.367,2.000,215.336,-82.595,19.519
0.022,0.335,1.379,250.130,-41.534,33.198
0.243,0.354,0.786,250.130,-13.550,17.267
0.201,0.511,0.405,250.130,-10.015,-5.695
0.071,0.626,0.181,222.489,-3.061,-16.824
-0.027,0.761,0.065,175.969,12.954,-15.076
-0.118,0.864,0.076,123.672,20.504,-7.405
-0.148,0.885,0.240,89.626,19.221,-0.076
-0.169,0.840,0.447,86.397,23.977,9.893
-0.183,0.804,0.522,104.779,19.931,21.702
-0.129,0.818,0.438,121.389,20.107,32.481
-0.048,0.836,0.332,121.603,18.756,42.046
0.045,0.869,0.277,107.275,21.153,45.718
0.142,0.900,0.317,87.710,7.191,45.519
0.275,0.882,0.397,85.275,7.672,36.740
0.293,0.843,0.441,95.160,13.939,23.954
0.262,0.844,0.417,107.336,8.748,10.160
0.171,0.857,0.337,116.351,3.756,1.885
0.104,0.894,0.251,119.405,-1.328,0.305
0.108,0.916,0.147,118.313,-2.916,1.252
0.110,0.935,0.087,114.046,1.244,4.031
0.133,0.928,0.036,108.229,-0.580,4.550
0.131,0.893,-0.003,102.038,-3.618,-2.153
0.111,0.907,-0.061,95.832,-5.061,-8.817
0.068,0.918,-0.116,87.573,-4.779,-12.351
0.023,0.939,-0.160,77.168,-1.595,-11.947
0.001,0.970,-0.197,64.336,1.237,-6.649
0.001,0.979,-0.198,48.626,2.008,2.046
0.042,0.976,-0.175,36.092,6.397,7.183
0.066,0.966,-0.139,25.290,6.473,8.198
0.089,0.977,-0.104,19.137,5.298,7.290
0.100,0.983,-0.067,15.099,3.450,6.779
0.108,0.987,-0.036,15.206,2.176,6.130
0.118,0.992,-0.024,18.435,3.595,3.221
0.111,1.001,-0.042,19.641,5.458,1.229
0.086,1.007,-0.043,18.031,4.107,1.519
0.094,0.998,-0.032,15.786,2.695,1.458
0.084,1.015,-0.022,16.939,2.458,3.000
0.092,1.002,-0.018,21.168,0.504,4.542
0.118,0.982,-0.048,26.908,0.466,3.198
0.123,0.978,-0.082,28.779,-1.794,0.427

0.221,0.853,-0.732,-82.412,-28.420,-18.237
0.242,0.725,-1.006,-154.893,-55.382,-19.542
0.331,0.551,-1.281,-249.702,-48.382,-27.092
0.388,0.375,-1.400,-250.137,5.267,-52.947
0.341,0.166,-1.188,-250.137,55.008,-84.603
0.158,-0.032,-0.606,-250.137,89.244,-115.611
-0.085,-0.044,0.395,-250.137,81.206,-134.534
-0.347,0.125,1.920,-250.137,110.893,-121.985
-0.724,0.469,2.000,-250.137,96.351,-80.473
-0.827,0.592,2.000,-150.977,-3.695,-28.992
-0.634,0.543,2.000,-1.084,-70.954,5.931
-0.461,0.546,1.772,88.855,-106.450,27.298
-0.256,0.607,1.119,104.427,-100.084,45.847
0.006,0.601,0.761,86.420,-52.840,49.389
0.153,0.593,0.706,65.504,-16.298,33.626
0.120,0.613,0.746,62.084,-8.817,11.466
0.001,0.681,0.745,74.748,-2.069,-2.053
-0.135,0.742,0.708,88.931,2.481,-2.206
-0.206,0.781,0.664,101.985,3.679,6.679
-0.233,0.742,0.654,114.863,5.214,22.084
-0.186,0.751,0.599,126.275,3.878,36.046
-0.077,0.751,0.547,133.626,5.954,44.664
-0.017,0.744,0.507,139.031,9.534,50.099
0.052,0.774,0.480,137.183,15.679,51.527
0.132,0.809,0.492,131.718,11.870,48.389
0.177,0.804,0.510,137.076,4.870,39.008
0.196,0.773,0.457,151.214,9.038,33.695
0.183,0.788,0.370,161.313,10.702,24.359
0.176,0.817,0.234,159.985,8.611,16.565
0.149,0.868,0.105,142.412,0.763,7.504
0.118,0.915,0.066,122.618,0.740,5.702
0.106,0.923,0.052,107.901,6.015,6.618
0.123,0.909,0.039,99.137,7.618,3.977
0.091,0.906,-0.001,88.962,4.908,-1.718
0.066,0.912,-0.036,76.206,-1.069,-6.748
0.017,0.948,-0.026,66.809,3.977,-9.038
-0.026,0.986,-0.005,59.519,8.252,-0.382
0.015,0.982,0.003,56.198,9.489,10.053
0.085,0.960,-0.031,50.550,8.290,11.924
0.107,0.954,-0.045,41.588,3.794,5.435
0.081,0.969,-0.031,36.382,7.214,1.840
0.050,0.978,-0.022,33.695,11.527,2.985
0.048,1.002,-0.004,29.061,12.107,7.092
0.085,0.999,0.013,26.328,6.931,10.908
0.117,0.981,0.045,24.626,3.618,8.710
0.112,0.988,0.053,26.389,1.885,4.695
0.090,0.994,0.055,31.794,3.580,3.481
0.108,0.996,0.011,34.618,2.901,2.847
0.095,0.985,-0.038,31.435,-0.580,0.763
0.056,0.999,-0.048,27.969,-1.046,-0.275

0.188,0.694,-0.933,-125.603,-10.580,-27.397
0.180,0.614,-1.198,-224.962,-25.740,-39.992
0.125,0.479,-1.279,-250.137,-26.908,-41.702
0.165,0.301,-1.076,-250.137,14.443,-44.198
0.162,0.179,-0.425,-250.137,46.206,-59.061
0.008,0.116,0.549,-250.137,38.031,-67.893
0.045,0.134,1.786,-250.137,78.847,-59.473
-0.124,0.308,2.000,-250.137,104.015,-53.817
-0.253,0.387,2.000,-204.145,50.282,-57.527
-0.433,0.468,2.000,-69.687,-21.824,-52.878
-0.555,0.643,1.797,28.817,-52.252,-10.931
-0.314,0.629,1.306,59.328,-51.160,24.763
-0.024,0.573,1.156,72.473,-22.565,30.076
0.030,0.560,1.053,87.931,-28.504,19.237
0.075,0.578,0.910,110.710,-30.176,6.008
-0.005,0.625,0.738,124.885,-19.588,-8.489
-0.145,0.721,0.647,127.237,-8.603,-11.435
-0.209,0.764,0.603,126.664,5.008,3.496
-0.200,0.743,0.613,124.626,7.229,17.443
-0.171,0.732,0.623,131.565,3.908,25.458
-0.145,0.713,0.582,144.046,4.008,32.450
-0.051,0.739,0.466,151.878,8.969,40.084
0.034,0.777,0.384,147.221,11.191,41.748
0.089,0.788,0.345,137.466,9.794,40.435
0.149,0.805,0.327,127.603,9.069,35.405
0.158,0.810,0.302,119.176,3.328,26.023
0.168,0.816,0.258,114.534,3.840,17.634
0.146,0.846,0.215,103.885,1.664,8.885
0.071,0.883,0.209,93.031,-4.710,3.191
0.027,0.917,0.216,88.824,-2.344,4.511
0.021,0.921,0.212,87.550,2.351,10.244
0.045,0.912,0.159,85.817,5.229,13.847
0.070,0.926,0.125,81.412,2.740,11.901
0.084,0.928,0.099,77.160,2.168,10.573
0.097,0.923,0.045,70.313,-2.557,5.702
0.069,0.928,0.016,62.695,-1.779,0.939
0.065,0.947,-0.000,53.916,4.557,-0.550
0.036,0.967,0.000,42.260,5.649,-0.076
0.025,0.975,0.012,34.115,5.076,4.130
0.027,0.965,0.051,30.649,6.069,7.885
0.043,0.962,0.056,28.336,5.282,10.519
0.086,0.973,0.049,26.374,4.695,10.710
0.086,0.992,0.083,25.863,4.038,10.053
0.105,0.981,0.083,28.885,4.718,10.008
0.115,0.974,0.077,30.382,1.840,7.664
0.099,0.982,0.054,29.260,2.214,4.679
0.080,0.983,0.066,29.466,0.237,4.359
0.098,0.977,0.052,32.382,1.443,4.802
0.101,0.988,0.024,32.779,2.031,4.534
0.093,0.992,0.004,30.458,1.198,2.389

0.133,0.585,-1.077,-201.733,-26.687,-35.916
0.220,0.480,-1.266,-250.137,-7.382,-41.443
0.182,0.334,-0.856,-250.137,35.168,-59.542
-0.009,0.160,0.156,-250.137,44.275,-75.786
-0.083,0.174,1.424,-250.137,44.725,-63.824
-0.256,0.414,2.000,-250.137,101.198,-37.634
-0.401,0.365,2.000,-191.916,27.053,-22.947
-0.357,0.412,2.000,-27.527,-24.748,-15.275
-0.355,0.571,1.691,65.107,-55.794,9.206
-0.124,0.563,1.241,91.634,-45.382,27.885
0.083,0.517,1.053,115.740,-26.290,20.672
0.125,0.523,0.866,128.672,-23.901,-0.015
0.079,0.610,0.676,134.023,-19.641,-19.817
-0.094,0.728,0.555,123.618,-12.817,-23.924
-0.166,0.816,0.536,109.443,4.366,-9.710
-0.170,0.774,0.624,106.641,10.664,7.458
-0.139,0.685,0.593,117.885,5.954,13.924
-0.141,0.671,0.448,129.298,3.725,13.863
-0.141,0.738,0.293,119.015,4.504,17.282
-0.126,0.836,0.235,91.603,-1.359,25.595
-0.040,0.867,0.273,65.885,5.466,37.336
0.078,0.827,0.372,49.969,12.870,40.099
0.139,0.813,0.472,46.450,10.366,31.115
0.170,0.803,0.520,51.221,10.550,20.969
0.141,0.784,0.503,62.000,9.496,8.916
0.067,0.822,0.446,68.053,5.435,0.779
-0.013,0.860,0.389,66.473,-1.061,0.511
-0.024,0.889,0.354,63.863,-4.511,8.939
0.004,0.885,0.343,65.252,-2.954,15.313
0.053,0.889,0.312,68.389,4.847,17.786
0.091,0.870,0.292,69.603,9.191,15.458
0.094,0.865,0.263,65.336,8.160,9.321
0.070,0.880,0.225,58.359,1.160,1.534
0.038,0.909,0.178,53.473,-1.153,-0.267
0.014,0.916,0.146,47.710,4.573,1.855
0.000,0.928,0.138,38.221,3.458,4.802
0.010,0.932,0.166,28.107,2.786,7.718
0.025,0.934,0.203,20.931,3.534,9.641
0.036,0.925,0.236,19.244,6.305,9.198
0.037,0.948,0.280,22.305,6.687,9.198
0.035,0.956,0.290,28.397,4.443,11.672
0.064,0.935,0.276,34.450,5.046,11.977
0.069,0.923,0.246,38.458,4.840,11.435
0.076,0.943,0.220,37.466,4.237,9.802
0.082,0.953,0.212,34.435,4.191,8.580
0.068,0.968,0.222,32.924,2.794,6.214
0.041,0.974,0.253,36.855,3.954,7.618
0.050,0.958,0.254,43.023,4.321,9.908
0.063,0.953,0.247,49.779,2.443,10.328
0.091,0.949,0.190,56.153,2.740,9.267

0.177,0.763,-0.871,-100.534,-33.435,-27.061
0.183,0.680,-1.125,-184.756,-36.099,-33.076
0.142,0.519,-1.249,-250.137,-44.382,-33.366
0.231,0.308,-1.272,-250.137,-22.603,-32.855
0.256,0.113,-0.827,-250.137,31.924,-60.168
0.121,0.013,0.076,-250.137,51.863,-84.580
0.055,0.044,1.381,-250.137,100.847,-84.275
-0.292,0.267,2.000,-250.137,140.840,-73.023
-0.643,0.336,2.000,-250.137,37.664,-47.588
-0.565,0.430,2.000,-74.885,-30.321,-18.473
-0.504,0.541,2.000,78.198,-67.198,8.748
-0.320,0.579,1.485,125.710,-89.855,39.603
0.018,0.488,1.087,146.092,-55.328,48.771
0.204,0.502,0.865,161.962,-28.443,29.947
0.238,0.532,0.664,167.076,-11.969,3.336
0.135,0.635,0.458,157.763,-4.328,-18.298
-0.021,0.751,0.288,131.969,2.107,-26.603
-0.156,0.837,0.251,100.229,13.023,-16.534
-0.208,0.881,0.372,70.641,16.443,1.542
-0.202,0.835,0.531,64.298,14.237,15.504
-0.179,0.786,0.630,78.824,15.336,27.092
-0.136,0.774,0.620,103.282,16.221,37.992
-0.033,0.770,0.514,116.458,14.344,43.435
0.047,0.786,0.412,115.359,10.275,43.176
0.110,0.831,0.325,102.405,6.473,38.496
0.140,0.851,0.353,88.679,7.473,32.779
0.167,0.847,0.404,85.214,8.473,26.038
0.163,0.848,0.448,94.397,12.168,21.282
0.144,0.844,0.405,103.931,11.015,16.389
0.116,0.863,0.328,108.435,5.298,10.855
0.088,0.883,0.248,107.122,-0.427,8.107
0.073,0.890,0.151,99.802,-3.603,8.031
0.079,0.905,0.076,86.489,-4.305,7.786
0.079,0.911,0.027,70.099,-5.611,6.725
0.087,0.911,-0.009,56.481,-3.214,4.626
0.089,0.917,-0.032,42.840,3.084,0.725
0.038,0.938,-0.013,29.069,4.878,-1.244
-0.009,0.967,0.047,18.695,5.794,2.412
-0.002,0.986,0.114,13.947,3.985,9.588
0.020,0.964,0.189,16.969,3.099,16.603
0.070,0.947,0.224,26.664,6.824,18.802
0.110,0.942,0.218,35.672,8.634,17.221
0.128,0.948,0.194,39.748,1.427,13.168
0.128,0.967,0.164,41.710,-2.710,8.115
0.108,0.977,0.134,44.427,4.130,8.458
0.088,0.981,0.132,41.977,5.206,10.374
0.110,0.989,0.140,38.198,0.679,11.374
0.142,0.984,0.151,41.450,1.580,10.092
0.170,0.959,0.122,46.511,-0.565,6.267
0.167,0.952,0.049,47.328,-1.191,0.069

0.182,0.763,-0.877,-122.473,-35.863,-22.702
0.154,0.642,-1.088,-194.847,-25.885,-22.672
0.241,0.461,-1.285,-250.137,-4.450,-19.802
0.346,0.277,-1.166,-250.137,39.687,-45.405
0.240,0.047,-0.429,-250.137,47.748,-78.756
0.181,0.067,0.571,-250.137,66.603,-95.443
-0.099,0.294,2.000,-250.137,135.092,-99.626
-0.567,0.376,2.000,-250.137,78.489,-68.229
-0.617,0.397,2.000,-138.611,-7.534,-38.115
-0.527,0.481,2.000,19.710,-54.084,-16.145
-0.482,0.601,1.670,84.183,-76.740,20.298
-0.171,0.589,1.222,101.183,-50.473,43.321
0.060,0.514,1.078,117.237,-33.656,40.092
0.191,0.529,0.859,130.092,-27.145,16.115
0.162,0.619,0.716,130.954,-11.076,-8.611
-0.013,0.722,0.663,125.969,-1.634,-16.756
-0.130,0.780,0.689,129.550,10.947,-9.725
-0.197,0.745,0.716,145.221,14.893,3.779
-0.214,0.692,0.658,166.359,9.840,14.275
-0.185,0.684,0.492,182.061,13.824,25.229
-0.136,0.759,0.339,179.802,10.450,35.794
-0.052,0.783,0.238,171.290,8.969,45.756
0.064,0.785,0.152,158.565,15.626,50.962
0.194,0.799,0.048,131.588,16.313,43.718
0.246,0.831,0.019,92.725,11.153,25.061
0.166,0.892,0.106,62.924,4.863,11.313
0.097,0.918,0.202,52.809,7.351,8.107
0.065,0.918,0.291,55.832,7.794,10.924
0.067,0.903,0.292,65.389,4.252,12.756
0.080,0.916,0.253,71.130,5.977,11.382
0.056,0.927,0.228,72.565,3.511,10.176
0.077,0.917,0.176,73.336,2.504,11.282
0.086,0.928,0.141,72.786,2.069,8.901
0.117,0.935,0.103,73.031,2.573,9.412
0.135,0.931,0.051,67.870,4.305,5.321
0.102,0.931,0.030,56.908,-0.412,-1.023
0.056,0.963,0.013,47.595,0.527,-3.008
0.023,0.971,0.022,42.893,6.359,0.969
0.033,0.979,0.023,36.328,8.412,6.275
0.068,0.985,0.033,28.664,6.038,9.618
0.094,0.979,0.061,27.046,5.794,9.298
0.116,0.974,0.073,24.809,1.756,6.122
0.110,0.967,0.060,25.183,-0.397,2.336
0.103,0.972,0.043,26.771,3.649,-0.374
0.064,0.980,0.015,22.916,7.031,-0.779
0.044,1.001,0.021,16.687,4.527,1.771
0.072,0.999,0.025,14.344,4.740,5.160
0.078,0.989,0.047,12.939,2.282,5.954
0.086,0.976,0.073,15.725,0.282,5.115
0.107,0.981,0.070,22.260,2.611,4.298

0.247,0.721,-0.854,-75.336,-37.534,-19.634
0.286,0.542,-1.265,-162.374,-62.466,-22.153
0.440,0.396,-1.597,-250.137,-43.244,-30.489
0.625,0.136,-1.340,-250.137,10.023,-64.763
0.475,-0.196,-0.540,-250.137,81.458,-126.878
0.027,-0.240,0.521,-250.137,123.664,-179.374
-0.629,-0.228,2.000,-250.137,137.992,-160.206
-1.219,0.193,2.000,-250.137,146.099,-80.427
-1.178,0.315,2.000,-149.702,-10.076,-1.947
-0.644,0.260,2.000,87.504,-76.137,35.992
-0.478,0.347,1.990,187.397,-123.481,52.435
-0.163,0.281,1.340,223.939,-127.061,61.198
0.148,0.327,0.884,250.130,-74.206,35.962
0.183,0.445,0.508,246.885,-26.748,3.893
0.041,0.636,0.244,202.656,-6.618,-13.618
-0.088,0.794,0.184,147.603,5.969,-14.473
-0.190,0.840,0.311,109.160,22.282,-1.817
-0.198,0.791,0.491,99.206,27.053,15.244
-0.236,0.736,0.581,111.557,22.214,23.969
-0.224,0.758,0.577,129.580,17.237,32.397
-0.195,0.789,0.491,143.244,18.824,50.122
-0.067,0.795,0.374,141.115,13.527,62.473
0.069,0.811,0.288,127.855,7.710,61.260
0.180,0.812,0.265,113.908,3.176,55.626
0.248,0.826,0.276,103.397,10.252,42.786
0.265,0.844,0.309,95.260,10.496,27.069
0.211,0.846,0.332,95.924,11.405,13.069
0.127,0.885,0.335,101.634,16.069,5.687
0.027,0.912,0.292,106.794,9.527,7.756
0.000,0.917,0.256,111.336,0.756,13.656
0.066,0.908,0.142,113.840,-3.183,17.008
0.133,0.892,0.036,108.412,-1.885,12.817
0.129,0.906,-0.060,92.298,1.420,4.710
0.113,0.927,-0.106,70.969,1.458,-2.573
0.066,0.940,-0.113,50.756,1.710,-7.313
0.022,0.965,-0.080,36.466,4.160,-6.458
0.008,0.981,-0.028,29.008,8.840,-0.267
0.051,0.969,-0.010,24.573,6.985,4.954
0.091,0.956,0.020,21.305,3.183,3.664
0.084,0.957,0.044,19.702,2.389,-0.298
0.057,0.980,0.052,19.336,1.237,-1.847
0.039,0.988,0.072,21.626,3.611,-0.481
0.032,0.989,0.063,22.557,3.573,2.557
0.055,1.007,0.054,21.496,2.366,4.649
0.081,1.000,0.061,20.916,1.260,5.725
0.099,0.991,0.072,22.420,1.000,3.481
0.086,0.982,0.077,25.802,0.824,-0.344
0.046,0.994,0.059,29.824,0.183,-2.527
0.036,0.992,0.044,35.130,1.511,-0.107
0.034,0.987,-0.017,34.939,-1.214,2.275

0.096,0.659,-1.041,-165.985,-17.137,-24.389
0.026,0.429,-1.267,-250.137,-25.389,-19.015
0.144,0.256,-1.381,-250.137,-11.840,-16.023
0.241,0.061,-1.032,-250.137,27.840,-36.687
0.200,-0.014,-0.149,-250.137,48.008,-65.504
0.202,0.029,1.514,-250.137,145.863,-72.985
-0.402,0.279,2.000,-250.137,237.282,-52.107
-0.777,0.209,2.000,-250.137,73.802,-18.313
-0.557,0.198,2.000,-76.107,-39.855,-1.015
-0.406,0.322,2.000,83.267,-66.977,3.427
-0.454,0.442,1.728,152.939,-112.511,30.137
-0.093,0.413,1.300,189.405,-105.237,51.481
0.205,0.399,0.973,219.206,-73.344,32.702
0.310,0.503,0.586,217.534,-46.206,-0.023
0.177,0.633,0.343,189.237,-26.038,-24.290
0.003,0.793,0.247,146.206,-3.962,-28.466
-0.137,0.853,0.346,111.893,5.496,-16.840
-0.219,0.812,0.499,104.298,6.504,-5.160
-0.221,0.758,0.588,118.893,12.023,11.756
-0.244,0.716,0.544,139.076,2.168,25.802
-0.160,0.727,0.399,153.870,2.908,37.405
-0.061,0.790,0.229,146.229,9.466,42.023
-0.011,0.845,0.147,116.321,5.695,41.015
0.031,0.877,0.215,92.137,4.351,43.244
0.105,0.872,0.315,82.191,7.939,43.573
0.162,0.865,0.412,82.733,3.176,37.321
0.200,0.822,0.429,91.450,2.763,27.634
0.159,0.859,0.402,103.496,8.084,16.244
0.123,0.884,0.354,114.405,11.649,13.183
0.104,0.893,0.254,116.779,6.985,14.435
0.108,0.904,0.182,109.046,-2.176,13.588
0.105,0.920,0.130,99.649,-5.214,14.092
0.130,0.925,0.084,90.473,-5.878,14.802
0.161,0.920,0.053,82.153,-7.443,11.656
0.164,0.932,0.037,74.351,-5.084,6.618
0.133,0.935,0.007,63.267,-8.771,0.427
0.102,0.937,0.003,51.298,-18.099,-1.595
0.087,0.943,0.007,46.008,-23.015,-0.580
0.100,0.959,-0.032,43.374,-18.947,2.382
0.115,0.966,-0.067,36.053,-11.023,3.542
0.107,0.958,-0.037,27.275,-7.084,2.679
0.115,0.966,-0.007,24.763,2.038,1.221
0.089,0.972,0.012,23.695,5.603,-0.008
0.094,0.980,0.012,23.679,5.542,1.061
0.095,0.984,0.010,24.489,6.656,2.664
0.104,0.976,0.010,23.969,5.603,3.656
0.124,0.978,-0.001,22.115,4.336,2.092
0.125,0.976,-0.028,18.153,3.206,0.718
0.133,0.984,-0.046,11.695,3.969,-1.313
0.109,0.986,-0.016,5.275,6.115,-3.672

0.201,0.763,-0.895,-101.595,-24.924,-18.779
0.273,0.631,-1.206,-211.481,-47.687,-19.061
0.394,0.446,-1.428,-250.137,-35.832,-19.153
0.497,0.142,-1.240,-250.137,38.626,-62.252
0.208,-0.055,-0.338,-250.137,102.351,-120.580
-0.163,0.018,1.308,-250.137,187.137,-129.817
-0.677,0.393,2.000,-250.137,190.695,-95.924
-0.840,0.472,2.000,-242.641,48.794,-43.366
-0.629,0.469,2.000,-49.855,-39.229,-6.305
-0.461,0.594,2.000,78.069,-69.702,14.618
-0.290,0.624,1.415,109.786,-70.046,37.527
-0.125,0.576,1.152,126.969,-48.435,46.634
0.057,0.529,0.949,140.099,-31.374,40.237
0.166,0.581,0.767,147.137,-19.092,18.771
0.042,0.675,0.619,146.718,-10.351,-0.366
-0.066,0.765,0.535,142.099,2.405,-1.824
-0.177,0.805,0.517,140.229,9.580,9.198
-0.188,0.782,0.527,139.397,13.588,22.466
-0.180,0.763,0.517,145.641,0.924,29.176
-0.121,0.770,0.434,157.221,3.214,37.092
-0.063,0.790,0.295,156.916,8.580,44.542
0.029,0.807,0.196,139.725,4.031,45.405
0.084,0.833,0.156,118.618,0.382,40.786
0.169,0.865,0.146,100.809,7.382,33.069
0.143,0.889,0.229,89.427,10.260,25.847
0.160,0.901,0.304,92.695,13.939,22.153
0.139,0.879,0.306,104.504,14.840,17.122
0.111,0.891,0.250,111.206,8.076,13.672
0.091,0.930,0.194,111.969,0.412,11.382
0.088,0.923,0.116,110.878,-3.420,12.756
0.116,0.927,0.001,106.374,-2.496,13.221
0.162,0.930,-0.090,90.710,0.405,8.466
0.142,0.942,-0.119,70.496,0.053,2.031
0.106,0.946,-0.112,54.901,3.550,-3.824
0.038,0.965,-0.079,45.237,3.397,-4.031
0.023,0.972,-0.067,39.237,3.748,-0.084
0.019,0.970,-0.082,32.718,1.122,5.366
0.056,0.990,-0.085,24.458,3.756,9.153
0.071,0.982,-0.063,14.550,2.206,9.992
0.101,0.978,-0.001,13.092,3.481,9.878
0.099,0.980,0.017,14.939,2.489,7.550
0.103,0.995,0.036,17.382,0.824,5.656
0.117,0.992,0.011,20.336,0.450,5.015
0.120,0.986,-0.014,20.817,2.511,3.450
0.116,0.994,-0.043,15.527,2.176,0.229
0.081,1.008,-0.031,8.885,1.267,-1.008
0.065,0.998,0.015,8.847,1.725,1.145
0.061,0.999,0.039,15.344,2.366,4.908
0.085,0.994,0.025,22.046,0.855,7.275
0.130,0.986,-0.006,25.908,-1.053,5.718

0.178,0.728,-0.948,-90.489,-6.496,-17.359
0.213,0.552,-1.254,-162.985,5.809,-20.260
0.312,0.440,-1.489,-250.137,51.160,-39.412
0.195,0.259,-1.307,-250.137,87.710,-75.099
-0.096,0.155,-0.406,-250.137,105.130,-103.214
-0.349,0.315,0.845,-250.137,102.260,-79.397
-0.442,0.372,2.000,-250.137,63.084,-43.275
-0.312,0.516,2.000,-247.176,69.809,-8.939
-0.178,0.517,2.000,-72.298,1.282,-8.397
-0.116,0.544,1.974,24.008,-44.954,-28.397
-0.197,0.645,1.407,63.084,-44.145,-28.580
-0.253,0.789,1.104,61.252,-26.687,-13.069
-0.217,0.738,1.060,64.008,-30.382,12.931
-0.023,0.664,0.900,92.076,-25.328,19.000
0.020,0.704,0.663,101.397,-24.977,8.214
-0.020,0.775,0.533,96.382,-20.840,2.053
-0.062,0.836,0.514,88.427,-17.328,3.779
-0.075,0.814,0.563,90.099,-12.046,7.687
-0.103,0.767,0.602,106.405,-7.534,9.885
-0.147,0.726,0.539,130.275,-8.366,13.031
-0.137,0.760,0.358,141.802,-6.015,20.870
-0.072,0.814,0.188,130.496,-4.802,29.206
0.002,0.853,0.112,100.542,-0.840,29.412
0.015,0.884,0.174,73.847,-7.725,29.840
0.068,0.904,0.283,59.702,-4.908,29.191
0.092,0.893,0.420,61.916,-3.015,26.489
0.122,0.866,0.465,78.664,0.122,24.008
0.146,0.854,0.420,95.656,3.733,15.122
0.108,0.880,0.335,105.237,6.779,7.084
0.036,0.918,0.267,106.649,5.473,5.771
0.030,0.932,0.228,105.939,2.115,10.885
0.053,0.918,0.195,107.832,-1.267,15.000
0.107,0.907,0.126,110.718,-1.229,15.878
0.142,0.895,0.044,106.130,0.626,9.664
0.134,0.912,-0.053,90.763,-0.221,1.939
0.065,0.940,-0.110,69.901,-2.855,-3.359
0.026,0.978,-0.136,51.718,-0.489,0.718
0.021,0.979,-0.109,32.115,1.832,6.947
0.057,0.967,-0.033,21.580,0.718,10.076
0.085,0.956,0.054,23.313,3.252,9.122
0.095,0.962,0.066,28.977,2.786,6.855
0.090,0.971,0.042,32.191,-1.160,5.374
0.103,0.988,-0.016,29.221,-0.809,4.618
0.109,0.991,-0.024,22.863,0.412,2.618
0.089,0.994,-0.002,19.542,2.542,1.550
0.081,0.994,0.031,19.733,3.237,2.237
0.075,0.994,0.056,21.092,1.855,2.298
0.074,0.997,0.069,26.115,0.252,3.282
0.069,0.990,0.053,32.611,1.214,3.557
0.077,0.996,0.020,37.969,-0.702,5.145

0.129,0.607,-1.053,-67.374,-33.473,-12.359
0.211,0.436,-1.647,-161.130,-45.305,-7.565
0.294,0.289,-2.000,-250.137,5.878,-15.992
0.328,-0.002,-1.580,-250.137,45.802,-47.977
0.203,-0.194,-0.323,-250.137,72.817,-90.885
-0.024,-0.157,1.204,-250.137,81.809,-93.336
-0.347,-0.087,2.000,-250.137,139.252,-62.099
-0.728,0.228,2.000,-250.137,83.443,-27.740
-0.617,0.287,2.000,-40.863,-38.443,1.779
-0.435,0.414,2.000,129.557,-88.809,13.679
-0.198,0.417,1.598,190.000,-103.550,39.458
0.098,0.451,1.139,218.038,-83.656,32.603
0.253,0.453,0.776,226.069,-44.855,11.420
0.218,0.570,0.435,209.206,-20.344,-12.939
0.053,0.693,0.220,171.779,-1.351,-25.282
-0.092,0.813,0.164,126.664,6.824,-22.359
-0.169,0.863,0.283,89.626,9.679,-11.069
-0.191,0.846,0.441,82.053,11.962,4.427
-0.179,0.790,0.493,95.069,12.023,17.763
-0.128,0.771,0.407,109.366,15.260,26.183
-0.091,0.810,0.321,105.794,16.206,31.603
-0.047,0.854,0.271,87.710,10.718,37.550
0.025,0.893,0.334,68.969,5.763,43.084
0.124,0.881,0.435,63.374,1.504,44.939
0.188,0.849,0.511,72.939,2.282,39.176
0.223,0.835,0.516,88.679,5.573,29.260
0.221,0.861,0.508,102.687,7.275,19.565
0.178,0.857,0.450,117.076,7.893,13.168
0.138,0.862,0.346,126.168,3.023,10.137
0.128,0.868,0.228,129.527,-2.183,7.435
0.111,0.892,0.091,124.290,-3.282,6.527
0.120,0.906,-0.024,108.580,-6.076,3.985
0.122,0.918,-0.075,89.076,-2.435,-0.458
0.066,0.939,-0.069,70.725,1.695,-3.565
0.046,0.960,-0.049,59.206,9.534,0.679
0.034,0.967,-0.020,50.000,6.168,7.855
0.084,0.950,0.002,46.069,0.542,12.504
0.135,0.936,-0.020,42.710,-1.061,10.557
0.139,0.933,-0.049,35.115,0.916,4.809
0.117,0.952,-0.077,23.740,4.275,1.863
0.091,0.986,-0.035,14.786,5.405,2.664
0.080,0.992,0.019,10.664,6.046,6.977
0.113,0.992,0.047,10.878,3.855,9.214
0.159,0.971,0.060,13.107,4.214,7.382
0.153,0.976,0.074,15.298,2.221,3.015
0.142,0.984,0.055,15.992,1.466,-0.305
0.127,0.981,0.014,15.847,2.130,-1.504
0.113,0.987,-0.008,12.046,3.237,-3.160
0.074,1.000,0.001,7.756,1.901,-2.336
0.070,0.997,0.040,8.802,0.733,1.870

0.161,0.697,-0.952,-149.504,-22.000,-11.901
0.280,0.544,-1.199,-243.084,-25.847,-13.824
0.398,0.422,-1.252,-250.137,11.168,-29.779
0.376,0.227,-0.836,-250.137,54.053,-64.008
0.229,0.043,-0.077,-250.137,65.916,-93.198
0.101,0.067,0.681,-250.137,70.863,-105.260
0.001,0.132,1.754,-250.137,125.733,-100.107
-0.447,0.275,2.000,-250.137,121.840,-86.214
-0.699,0.346,2.000,-229.519,23.008,-58.511
-0.669,0.335,2.000,-76.740,-56.992,-31.191
-0.568,0.485,2.000,59.580,-66.328,-1.855
-0.467,0.498,1.841,127.977,-97.298,34.626
-0.147,0.440,1.288,168.832,-109.771,52.435
0.095,0.460,0.808,170.733,-93.771,47.481
0.261,0.476,0.544,158.595,-44.427,25.534
0.210,0.566,0.450,147.305,4.641,-5.718
0.029,0.649,0.443,140.641,28.458,-18.298
-0.115,0.733,0.432,133.954,23.710,-12.122
-0.150,0.775,0.395,127.855,18.198,-1.321
-0.131,0.796,0.376,116.756,22.076,12.603
-0.103,0.817,0.435,104.137,20.847,22.023
-0.055,0.816,0.535,100.275,21.092,33.069
-0.003,0.775,0.607,109.832,12.718,41.450
0.092,0.762,0.580,123.649,10.870,42.198
0.135,0.750,0.505,132.282,4.336,34.305
0.176,0.816,0.425,133.038,9.275,28.137
0.162,0.845,0.379,128.084,5.901,24.695
0.174,0.830,0.329,122.855,2.962,19.359
0.184,0.853,0.270,117.901,9.244,11.595
0.132,0.863,0.232,110.863,7.435,5.672
0.129,0.894,0.170,102.725,4.786,1.000
0.052,0.897,0.136,92.397,4.855,-2.389
0.020,0.929,0.123,86.588,4.611,0.679
0.006,0.930,0.105,84.130,3.656,6.626
0.024,0.932,0.064,76.954,2.023,9.870
0.033,0.940,0.050,68.053,-1.885,13.740
0.070,0.946,0.013,58.153,1.221,14.733
0.097,0.955,0.006,49.389,2.092,14.542
0.129,0.947,-0.020,40.389,4.794,13.344
0.113,0.951,-0.000,28.069,6.198,9.191
0.105,0.975,0.050,18.412,5.962,9.336
0.122,0.981,0.096,16.450,4.969,10.519
0.126,0.968,0.137,21.336,5.611,10.214
0.125,0.964,0.137,26.557,-3.183,9.626
0.167,0.977,0.082,28.427,-2.214,6.901
0.157,0.966,0.056,25.420,1.389,2.244
0.112,0.983,0.050,21.992,3.435,-1.282
0.057,1.004,0.094,23.412,3.725,1.817
0.054,1.001,0.116,27.931,4.908,7.382
0.069,0.993,0.102,32.840,1.466,10.687

0.284,0.372,1.194,-250.137,57.916,-42.863
0.008,0.521,1.857,-250.137,62.748,-53.786
-0.193,0.588,2.000,-179.534,32.053,-40.740
-0.188,0.612,2.000,-64.977,3.977,-24.878
-0.257,0.669,1.675,4.260,-28.221,-8.473
-0.154,0.708,1.378,35.130,-33.763,13.977
0.000,0.674,1.244,61.237,-25.130,23.779
0.133,0.639,1.003,87.901,-32.954,17.321
0.139,0.673,0.683,96.641,-33.962,3.802
0.137,0.719,0.561,97.366,-11.122,-9.534
0.031,0.773,0.507,89.977,2.557,-13.618
-0.039,0.787,0.542,91.542,4.939,-11.481
-0.091,0.764,0.538,106.771,11.176,-4.733
-0.104,0.750,0.445,118.191,16.504,2.588
-0.066,0.788,0.387,116.595,16.519,7.885
-0.030,0.823,0.356,109.527,14.679,15.153
0.033,0.847,0.340,98.702,14.939,22.527
0.086,0.857,0.403,90.489,17.809,23.008
0.102,0.834,0.473,93.985,19.817,20.855
0.111,0.852,0.494,103.191,15.122,18.580
0.136,0.859,0.450,111.328,13.817,16.863
0.110,0.862,0.397,115.305,5.794,14.649
0.143,0.874,0.317,119.634,6.611,13.672
0.136,0.870,0.234,117.473,5.832,8.687
0.127,0.891,0.147,110.771,0.344,5.008
0.125,0.909,0.061,98.473,-0.565,2.611
0.117,0.916,-0.004,82.603,-3.573,-0.015
0.115,0.926,-0.040,63.496,-1.504,-3.160
0.067,0.954,-0.028,47.977,2.527,-4.817
0.043,0.948,-0.014,38.534,6.916,-0.893
0.024,0.955,0.022,27.710,5.802,2.779
0.040,0.960,0.054,19.992,3.092,6.267
0.055,0.979,0.092,16.931,0.176,8.489
0.083,0.962,0.140,22.359,1.679,10.374
0.112,0.958,0.102,26.832,2.771,9.160
0.114,0.966,0.066,25.893,2.687,7.527
0.125,0.984,0.043,20.939,3.511,5.977
0.117,0.987,0.055,13.855,4.847,4.267
0.086,0.990,0.124,9.679,2.214,4.214
0.090,0.988,0.193,18.321,5.313,6.260
0.104,0.982,0.188,31.725,4.725,8.107
0.107,0.975,0.153,39.832,2.595,7.107
0.111,0.990,0.105,44.290,0.450,8.176
0.135,0.974,0.048,44.511,1.099,7.794
0.144,0.970,0.018,38.580,-1.565,4.344
0.131,0.982,0.028,36.374,0.756,1.679
0.111,0.989,0.018,36.985,3.351,0.527
0.098,0.971,-0.004,37.603,0.718,1.824
0.116,0.972,-0.056,35.359,1.924,1.687
0.096,0.969,-0.079,29.969,3.519,1.313

0.103,0.655,-1.073,-117.634,-21.985,-36.008
0.133,0.541,-1.364,-233.534,-39.313,-34.366
0.174,0.468,-1.210,-250.137,-11.076,-32.374
0.270,0.277,-0.574,-250.137,30.534,-41.817
0.252,0.140,0.425,-250.137,61.351,-74.046
-0.016,0.130,1.456,-250.137,59.634,-95.160
-0.265,0.293,2.000,-250.137,82.634,-80.221
-0.542,0.515,2.000,-174.260,74.015,-49.794
-0.549,0.511,2.000,-22.580,-15.275,-20.366
-0.462,0.575,1.950,72.641,-58.748,3.237
-0.245,0.586,1.434,118.740,-56.832,29.519
0.023,0.567,1.083,146.962,-38.046,27.527
0.107,0.566,0.887,162.137,-22.718,9.435
0.065,0.639,0.717,169.290,-8.786,-7.527
-0.061,0.661,0.528,173.053,-7.489,-11.954
-0.095,0.671,0.287,174.130,-4.000,-9.702
-0.119,0.754,0.115,156.168,6.473,-8.870
-0.179,0.848,0.024,118.145,15.359,-1.504
-0.187,0.912,0.056,68.725,15.649,16.107
-0.136,0.905,0.197,30.718,13.802,32.435
-0.032,0.857,0.393,18.031,12.275,38.969
0.057,0.820,0.499,26.969,14.328,38.344
0.094,0.807,0.542,39.122,13.779,32.160
0.086,0.840,0.558,48.214,6.115,24.824
0.078,0.854,0.546,59.389,-1.710,22.962
0.092,0.858,0.505,74.328,-1.496,21.618
0.121,0.868,0.461,86.740,6.878,18.824
0.083,0.866,0.419,90.962,9.076,12.641
0.055,0.871,0.386,95.443,7.962,10.260
0.020,0.894,0.328,99.511,4.786,10.107
0.022,0.914,0.249,99.435,6.305,13.023
0.016,0.926,0.198,93.908,1.023,16.092
0.055,0.905,0.138,87.298,-1.573,17.130
0.105,0.889,0.043,77.992,2.611,12.267
0.070,0.928,-0.008,58.405,2.771,4.321
0.023,0.975,0.027,42.382,1.321,7.672
0.044,0.963,0.094,38.626,6.160,13.198
0.066,0.941,0.128,40.664,6.611,15.489
0.098,0.946,0.143,45.282,4.328,16.458
0.137,0.928,0.104,48.756,2.969,13.000
0.138,0.947,0.050,44.947,2.099,7.260
0.090,0.971,0.032,36.824,-1.252,4.336
0.073,0.980,0.049,35.198,2.947,6.580
0.077,0.989,0.056,33.580,8.634,8.588
0.087,0.987,0.067,28.656,5.916,8.748
0.093,0.980,0.094,24.542,3.969,8.046
0.096,0.983,0.096,25.076,3.176,7.137
0.104,0.983,0.081,27.466,5.481,6.931
0.110,0.977,0.073,27.183,2.710,4.832
0.096,0.989,0.082,28.359,-0.015,2.969

0.150,0.623,-1.061,-71.893,-62.115,-12.099
0.253,0.430,-1.768,-179.550,-20.817,-12.061
0.218,0.266,-2.000,-250.137,34.786,-28.641
0.346,0.041,-1.325,-250.137,90.374,-53.076
0.239,-0.167,0.014,-250.137,124.450,-91.779
-0.092,-0.204,1.555,-250.137,97.466,-110.656
-0.392,-0.076,2.000,-250.137,106.466,-84.275
-0.740,0.306,2.000,-216.832,78.130,-46.733
-0.667,0.362,2.000,3.542,-41.237,-15.656
-0.552,0.511,2.000,129.237,-98.061,11.901
-0.149,0.503,1.544,187.695,-76.763,37.954
0.115,0.460,1.084,208.092,-49.435,28.214
0.198,0.508,0.752,207.321,-35.527,4.389
0.097,0.615,0.483,196.527,-22.183,-14.603
-0.012,0.721,0.289,174.534,-6.626,-18.687
-0.084,0.811,0.203,141.847,7.939,-14.061
-0.114,0.842,0.248,115.458,17.328,-6.550
-0.171,0.838,0.345,98.374,18.008,2.794
-0.189,0.824,0.411,100.053,12.916,11.450
-0.173,0.810,0.411,108.260,11.916,22.443
-0.097,0.821,0.350,111.802,10.221,33.214
0.007,0.822,0.257,106.435,11.374,38.214
0.090,0.854,0.225,88.412,7.313,33.038
0.107,0.886,0.260,73.542,3.198,30.313
0.131,0.883,0.324,68.702,7.160,28.321
0.149,0.900,0.378,68.267,6.275,21.489
0.125,0.887,0.446,79.176,4.626,17.053
0.123,0.901,0.431,94.832,6.771,14.107
0.121,0.887,0.366,109.962,9.817,10.664
0.099,0.885,0.248,115.985,4.519,6.160
0.086,0.898,0.100,109.870,-4.069,2.702
0.065,0.929,0.018,96.069,-9.931,0.069
0.038,0.937,-0.027,84.137,-6.962,1.656
0.052,0.945,-0.077,70.977,1.038,2.656
0.028,0.948,-0.083,52.672,3.313,1.565
0.018,0.966,-0.066,40.565,4.977,4.229
0.032,0.969,-0.053,30.481,7.580,8.779
0.059,0.961,-0.007,24.427,3.015,11.740
0.083,0.958,0.025,22.725,0.580,11.405
0.111,0.956,0.024,20.374,-0.695,8.847
0.090,0.967,0.067,20.695,1.336,5.359
0.086,0.986,0.083,24.947,6.351,4.435
0.079,0.985,0.075,25.565,4.298,4.275
0.082,1.003,0.057,25.580,1.931,6.496
0.096,0.993,0.053,24.664,1.885,6.618
0.111,0.993,0.071,25.641,2.115,6.160
0.116,0.987,0.053,27.656,2.000,3.344
0.118,0.990,0.038,29.023,3.511,0.901
0.069,0.995,0.035,27.183,0.985,-0.901
0.056,0.991,0.038,31.176,3.038,1.275

0.097,0.616,-1.133,-83.802,-70.473,-11.939
0.163,0.479,-1.779,-186.893,-44.893,1.786
0.311,0.307,-1.983,-250.137,-8.550,6.221
0.536,0.039,-1.504,-250.137,19.084,-24.099
0.500,-0.267,-0.433,-250.137,59.840,-78.809
0.183,-0.398,0.967,-250.137,110.092,-130.359
-0.424,-0.218,2.000,-250.137,164.053,-111.122
-1.052,0.256,2.000,-250.137,129.198,-56.321
-0.960,0.365,2.000,-39.076,-31.908,1.679
-0.539,0.411,2.000,150.351,-103.069,32.802
-0.239,0.416,1.669,220.244,-133.542,55.405
0.229,0.340,0.948,250.130,-74.282,43.305
0.312,0.409,0.543,250.130,-24.229,3.954
0.164,0.593,0.289,229.229,4.473,-21.969
0.007,0.715,0.130,191.618,16.397,-26.458
-0.096,0.839,0.062,142.229,23.756,-20.863
-0.147,0.877,0.159,99.153,32.000,-9.603
-0.221,0.840,0.359,81.336,30.763,-0.504
-0.254,0.815,0.472,89.137,25.198,12.901
-0.208,0.808,0.439,110.160,24.771,33.191
-0.082,0.821,0.292,115.863,23.046,45.962
0.064,0.843,0.170,95.527,17.565,46.878
0.152,0.881,0.199,60.649,7.237,37.115
0.199,0.898,0.323,41.458,7.237,26.450
0.154,0.920,0.480,44.489,6.763,19.160
0.123,0.882,0.570,66.282,4.901,17.664
0.142,0.865,0.528,94.229,8.817,14.496
0.113,0.870,0.403,112.153,11.145,8.153
0.064,0.919,0.288,113.198,3.260,3.534
0.045,0.923,0.229,115.779,-4.435,6.687
0.069,0.911,0.139,117.718,-0.450,6.870
0.060,0.906,0.064,111.221,-6.382,4.244
0.070,0.911,-0.022,100.725,-11.534,1.153
0.065,0.923,-0.118,83.565,-7.214,-2.458
0.021,0.947,-0.155,60.992,-3.511,-5.405
-0.038,0.988,-0.094,44.260,3.977,-0.397
-0.006,0.980,-0.033,38.206,5.511,9.992
0.058,0.957,-0.022,36.725,0.435,14.328
0.131,0.931,-0.047,34.191,-1.756,11.099
0.118,0.946,-0.081,26.878,-0.992,3.580
0.092,0.976,-0.063,20.206,3.595,0.672
0.066,0.987,-0.037,14.939,4.855,0.786
0.073,0.996,-0.013,10.954,3.649,2.374
0.085,0.996,-0.011,7.366,0.687,3.031
0.085,0.974,0.003,5.740,1.107,0.511
0.086,0.991,-0.001,4.389,6.015,-1.725
0.050,1.005,0.032,1.916,3.046,-0.756
0.044,1.009,0.069,5.115,1.374,2.038
0.075,0.995,0.070,10.855,1.740,3.916
0.076,0.974,0.052,14.733,-0.267,2.664

0.126,0.544,-1.212,-106.672,-71.901,-1.634
0.186,0.437,-1.780,-219.786,-57.275,-2.137
0.200,0.321,-1.937,-250.137,-16.992,-14.771
0.283,0.072,-1.414,-250.137,33.916,-33.573
0.319,-0.108,-0.389,-250.137,102.084,-66.679
0.104,-0.152,1.009,-250.137,121.313,-100.534
-0.289,-0.067,2.000,-250.137,158.473,-77.076
-0.726,0.172,2.000,-250.137,106.870,-47.244
-0.737,0.259,2.000,-100.840,-21.847,-24.153
-0.626,0.425,2.000,88.756,-91.573,-0.504
-0.458,0.483,1.727,164.252,-124.855,40.351
0.027,0.481,1.235,196.076,-75.511,48.878
0.263,0.470,0.956,200.611,-36.115,30.076
0.255,0.516,0.669,196.336,-22.023,1.954
0.147,0.576,0.409,183.611,-6.504,-18.809
0.001,0.708,0.235,152.221,12.351,-31.763
-0.147,0.845,0.216,108.191,21.489,-27.130
-0.208,0.914,0.366,80.618,31.496,-10.969
-0.253,0.870,0.578,78.931,33.099,5.489
-0.223,0.809,0.709,98.252,34.527,22.489
-0.212,0.772,0.707,123.481,24.656,34.031
-0.118,0.793,0.638,145.076,16.244,43.656
-0.012,0.787,0.501,159.481,6.893,50.221
0.135,0.773,0.343,162.321,6.214,49.489
0.242,0.775,0.191,155.069,7.466,37.687
0.276,0.811,0.061,129.405,7.336,17.519
0.205,0.883,0.031,94.511,3.176,0.405
0.098,0.929,0.110,72.603,6.145,-5.397
0.016,0.945,0.199,69.511,11.870,-0.382
0.002,0.920,0.233,75.450,7.183,5.504
0.003,0.894,0.194,83.550,1.328,6.863
0.030,0.917,0.078,85.359,3.015,5.786
0.034,0.947,-0.020,75.313,-0.580,6.328
0.045,0.949,-0.079,58.924,0.076,5.847
0.057,0.965,-0.067,41.901,3.718,5.382
0.018,0.961,-0.004,30.718,7.695,4.550
-0.005,0.965,0.076,29.588,6.695,7.298
0.031,0.974,0.091,32.328,5.519,12.053
0.075,0.968,0.046,31.168,3.908,12.817
0.088,0.974,0.042,27.321,2.748,9.908
0.079,0.981,0.064,25.595,3.298,7.282
0.080,0.985,0.080,29.473,5.282,7.672
0.087,0.976,0.064,32.229,5.176,6.634
0.074,0.974,0.070,31.718,4.267,4.397
0.057,1.003,0.080,32.427,4.611,2.908
0.031,1.000,0.091,38.031,3.786,6.099
0.079,0.988,0.055,45.740,3.221,9.687
0.119,0.971,-0.012,47.641,-0.740,8.489
0.138,0.960,-0.094,42.634,-2.000,2.985
0.116,0.958,-0.147,30.885,-0.069,-3.748

0.156,0.683,-0.975,-100.870,-27.748,-14.817
0.204,0.543,-1.321,-183.198,-30.565,-11.908
0.344,0.451,-1.481,-250.137,-1.214,-24.786
0.372,0.207,-1.034,-250.137,20.130,-51.137
0.230,0.089,-0.251,-250.137,37.969,-91.603
-0.010,0.177,0.853,-250.137,58.000,-103.832
-0.329,0.244,2.000,-250.137,40.939,-88.824
-0.551,0.434,2.000,-250.137,71.710,-42.817
-0.612,0.538,2.000,-60.397,1.702,-9.840
-0.394,0.611,2.000,68.565,-60.206,9.053
-0.201,0.602,1.597,126.282,-61.366,24.626
0.008,0.597,1.133,149.931,-36.687,19.626
0.078,0.625,0.844,153.115,-27.679,8.145
0.047,0.701,0.656,152.084,-8.321,-3.336
-0.073,0.766,0.573,146.573,3.977,-4.160
-0.111,0.745,0.514,152.153,7.588,3.916
-0.081,0.712,0.381,163.740,19.511,6.275
-0.105,0.740,0.207,160.458,25.550,4.076
-0.163,0.794,0.082,136.366,17.664,6.924
-0.154,0.902,0.029,101.397,18.863,19.992
-0.083,0.926,0.119,65.191,18.130,33.733
0.033,0.895,0.281,43.863,16.687,37.664
0.111,0.858,0.403,44.855,15.076,31.397
0.125,0.860,0.465,54.885,9.710,22.168
0.085,0.865,0.459,67.405,5.840,16.542
0.064,0.901,0.432,79.916,9.947,14.786
0.053,0.934,0.379,87.031,12.267,16.687
0.083,0.952,0.366,90.550,12.229,17.206
0.108,0.913,0.338,97.092,2.351,15.710
0.129,0.881,0.231,103.901,-3.069,8.756
0.107,0.879,0.096,102.282,-0.115,-2.557
-0.001,0.927,0.013,90.427,1.229,-7.969
-0.062,0.977,-0.023,77.557,4.969,-1.847
-0.066,0.986,-0.024,66.023,4.443,7.176
-0.033,0.973,-0.006,58.374,4.405,15.702
0.019,0.952,0.014,52.015,5.740,15.237
0.043,0.958,0.045,51.885,7.977,12.878
0.037,0.960,0.065,55.389,8.198,12.824
0.049,0.961,0.050,58.855,6.183,14.168
0.058,0.975,-0.003,58.840,3.870,14.191
0.100,0.988,-0.029,55.412,4.046,15.389
0.122,0.976,-0.053,46.916,0.832,12.313
0.123,0.983,-0.063,39.534,1.725,8.183
0.091,0.989,-0.063,31.870,5.053,3.863
0.043,1.012,-0.021,27.969,5.008,4.802
0.045,1.025,0.034,33.374,4.252,10.084
0.085,0.987,0.036,43.824,1.504,12.351
0.127,0.956,-0.011,52.290,-0.344,9.687
0.136,0.950,-0.098,55.153,-0.870,4.260
0.122,0.968,-0.169,48.603,-1.748,-1.542

0.155,0.669,-1.008,-85.107,-27.328,-9.985
0.225,0.460,-1.525,-169.557,-28.679,-5.893
0.344,0.272,-1.828,-250.137,19.359,-23.115
0.333,0.021,-1.388,-250.137,42.710,-58.901
0.309,-0.061,-0.273,-250.137,83.038,-98.954
-0.102,-0.028,1.317,-250.137,93.481,-122.168
-0.539,0.051,2.000,-250.137,23.015,-90.359
-0.678,0.404,2.000,-184.336,64.244,-38.061
-0.733,0.487,2.000,55.511,-34.366,-4.916
-0.489,0.490,2.000,183.191,-105.115,31.565
0.012,0.474,1.298,250.130,-60.679,38.557
0.167,0.564,0.723,249.924,-35.618,23.351
0.160,0.616,0.362,216.137,-26.679,2.817
0.081,0.727,0.134,176.412,-5.985,-14.695
-0.038,0.845,0.115,131.031,9.985,-18.947
-0.135,0.885,0.253,100.458,18.160,-12.489
-0.207,0.806,0.354,104.176,13.198,-2.710
-0.243,0.749,0.258,124.061,15.458,7.695
-0.212,0.822,0.045,116.511,18.824,18.107
-0.183,0.910,-0.056,77.863,9.466,30.481
-0.046,0.947,0.023,33.519,6.092,43.115
0.112,0.929,0.234,8.458,14.176,43.267
0.196,0.919,0.469,7.664,15.008,32.023
0.162,0.877,0.648,28.359,6.855,19.313
0.118,0.872,0.680,62.115,0.160,12.008
0.074,0.888,0.577,93.076,-1.267,11.496
0.078,0.909,0.423,108.878,3.924,11.092
0.084,0.937,0.315,112.084,4.076,9.038
0.061,0.931,0.273,114.267,5.740,8.489
0.063,0.929,0.238,118.748,5.771,8.382
0.068,0.900,0.157,121.893,0.466,7.450
0.066,0.896,0.054,120.328,-1.260,3.779
0.053,0.915,-0.052,110.061,-3.626,-0.588
0.020,0.934,-0.180,90.649,-5.641,-0.565
0.010,0.939,-0.256,63.069,-2.130,0.229
-0.017,0.977,-0.217,38.656,3.221,3.626
-0.006,0.977,-0.141,22.603,6.985,10.427
0.028,0.958,-0.057,14.244,3.473,13.504
0.060,0.963,0.018,16.527,3.863,12.748
0.098,0.962,0.037,23.176,5.176,11.153
0.108,0.965,0.019,27.115,2.649,7.473
0.110,0.984,-0.052,23.504,2.511,3.534
0.112,0.998,-0.091,13.282,2.794,2.656
0.092,0.989,-0.056,4.099,3.389,0.580
0.072,1.005,0.012,2.985,4.847,-0.145
0.058,1.002,0.071,7.557,3.817,1.389
0.044,0.995,0.088,15.191,2.305,1.450
0.056,1.011,0.079,25.321,0.588,2.771
0.070,0.997,0.026,32.557,-0.290,3.595
0.092,0.983,-0.035,36.023,-1.290,2.405

