aX,aY,aZ,gX,gY,gZ
0.065,0.959,0.783,94.305,39.977,-9.695
0.024,0.995,1.025,163.763,45.756,-6.550
-0.021,0.977,1.259,250.130,49.748,4.763
-0.213,0.877,1.429,250.130,56.031,26.351
-0.256,0.510,1.421,250.130,46.298,49.527
0.001,0.590,0.275,250.130,-23.244,38.366
-0.018,0.536,-0.401,250.130,-21.969,31.168
-0.032,0.708,-1.077,250.130,-5.427,22.634
-0.074,0.752,-1.269,250.130,7.893,25.397
-0.149,0.754,-1.231,203.298,13.076,30.099
-0.150,0.667,-0.990,136.328,3.053,38.260
-0.102,0.650,-1.037,77.275,-13.603,38.046
-0.019,0.631,-1.036,16.443,-15.084,30.473
-0.031,0.682,-1.013,-39.481,-16.267,28.756
0.021,0.698,-0.895,-85.947,-14.580,24.420
0.059,0.711,-0.742,-117.489,-11.267,13.473
0.085,0.750,-0.641,-131.229,3.641,3.313
0.090,0.796,-0.616,-148.649,9.718,-4.290
0.070,0.847,-0.556,-172.313,11.168,-8.779
0.016,0.897,-0.468,-197.275,11.137,-8.031
-0.027,0.930,-0.397,-220.718,6.237,-3.038
-0.083,0.931,-0.320,-239.908,4.000,4.771
-0.103,0.934,-0.237,-250.137,5.458,14.481
-0.074,0.902,-0.035,-250.137,11.573,21.977
0.004,0.900,0.127,-250.137,11.863,25.802
0.125,0.838,0.291,-247.229,7.458,22.160
0.230,0.841,0.504,-217.458,4.473,9.511
0.238,0.894,0.649,-172.137,1.206,-5.160
0.175,0.947,0.654,-115.947,0.382,-14.305
0.083,0.976,0.561,-70.183,-1.924,-16.336
0.005,0.998,0.408,-48.672,-4.939,-12.977
-0.011,1.007,0.310,-44.840,-6.664,-7.260
-0.001,0.996,0.288,-46.282,-5.198,-2.015
0.037,0.988,0.343,-42.290,-2.901,0.786
0.062,0.959,0.408,-29.237,1.076,4.740
0.130,0.890,0.401,-14.695,-0.198,2.534
0.142,0.902,0.338,-7.687,-0.344,-6.168
0.081,0.932,0.275,-5.527,-1.817,-11.015
0.027,0.940,0.248,-6.137,-0.954,-10.008
0.012,0.942,0.248,-8.069,0.565,-7.641
0.010,0.945,0.259,-10.420,1.931,-5.962
0.017,0.934,0.294,-9.977,0.740,-4.214
0.044,0.932,0.292,-7.611,0.481,-3.542
0.039,0.936,0.273,-6.664,1.115,-4.740
0.019,0.935,0.297,-5.298,1.473,-3.122
0.039,0.925,0.301,-3.336,0.626,-3.313
0.039,0.924,0.284,-3.015,0.481,-3.947
-0.012,0.924,0.268,0.473,9.588,-0.092
0.061,0.945,0.317,-4.527,6.573,-1.649
0.036,0.934,0.313,0.145,4.130,0.176

0.102,1.018,0.741,46.977,66.000,-5.802
0.152,1.145,1.108,81.115,87.511,-10.725
-0.025,1.145,1.667,169.038,95.878,-5.954
-0.259,0.947,2.000,250.130,74.000,19.626
-0.484,0.479,1.955,250.130,60.290,61.550
-0.259,-0.015,0.871,250.130,7.389,96.481
0.066,-0.204,-0.468,250.130,-52.168,101.931
0.238,0.127,-2.000,250.130,-88.076,64.168
0.265,0.263,-2.000,250.130,-29.382,40.405
0.175,0.366,-1.922,129.206,-3.351,27.031
0.019,0.446,-1.263,33.893,-9.534,28.557
0.026,0.472,-0.973,4.847,-21.061,31.130
0.067,0.510,-1.036,-22.878,-30.321,29.412
0.080,0.509,-1.132,-65.504,-35.664,27.099
0.102,0.516,-1.166,-109.916,-38.076,23.771
0.167,0.525,-1.151,-149.267,-25.153,14.244
0.176,0.544,-1.075,-192.992,-6.260,-0.740
0.135,0.598,-0.979,-236.611,11.282,-13.267
0.064,0.639,-0.799,-250.137,21.374,-18.092
0.033,0.659,-0.591,-250.137,22.786,-24.031
0.010,0.701,-0.413,-250.137,26.107,-26.099
-0.098,0.736,-0.138,-250.137,26.573,-17.336
-0.054,0.784,0.227,-250.137,32.786,-1.405
0.000,0.842,0.510,-250.137,28.962,4.214
0.038,0.878,0.642,-224.168,18.855,3.618
0.025,0.956,0.660,-165.275,10.924,5.954
0.054,0.999,0.616,-122.435,12.260,10.695
0.080,0.978,0.540,-93.137,13.985,12.603
0.147,0.964,0.436,-80.595,12.328,7.504
0.152,0.952,0.384,-74.802,14.794,-0.611
0.123,0.927,0.402,-69.145,19.809,-4.115
0.117,0.911,0.422,-62.977,22.229,-8.595
0.094,0.915,0.418,-59.328,18.878,-13.420
0.035,0.940,0.440,-54.947,14.092,-13.649
0.009,0.943,0.466,-46.489,11.763,-9.145
0.014,0.932,0.471,-35.748,9.679,-3.389
0.054,0.931,0.422,-27.908,11.000,2.191
0.100,0.894,0.407,-24.198,9.382,1.817
0.117,0.879,0.410,-21.221,8.328,-2.099
0.121,0.876,0.427,-18.351,8.550,-5.954
0.099,0.891,0.425,-16.252,6.237,-10.145
0.069,0.896,0.438,-12.275,7.176,-9.679
0.056,0.893,0.438,-9.756,5.580,-9.565
0.042,0.906,0.435,-8.076,0.427,-9.420
0.036,0.901,0.442,-5.366,1.275,-7.458
0.049,0.902,0.438,-3.511,2.046,-7.275
0.041,0.902,0.440,-3.282,3.252,-9.412
0.015,0.906,0.446,-1.466,3.649,-10.466
-0.005,0.907,0.437,2.748,4.924,-8.008
-0.016,0.911,0.425,4.786,4.328,-5.290

0.104,1.010,0.781,48.847,62.359,6.046
0.226,1.062,1.084,95.947,93.214,2.916
0.266,1.115,1.462,169.221,94.756,-1.046
-0.147,0.891,1.767,250.130,71.863,4.489
-0.459,0.771,1.823,250.130,55.130,35.023
-0.606,0.434,1.493,250.130,44.160,85.863
-0.322,-0.003,0.641,250.130,22.290,117.901
0.038,-0.213,-0.337,250.130,-30.679,115.550
0.182,-0.007,-1.705,250.130,-142.779,95.099
0.392,0.042,-2.000,250.130,-98.336,69.351
0.387,0.142,-2.000,161.840,-35.115,29.573
0.211,0.134,-1.754,25.954,-6.817,5.878
0.025,0.271,-1.208,-28.527,-13.771,-0.267
0.039,0.396,-1.024,-54.954,-22.405,2.191
0.078,0.441,-1.128,-88.824,-35.420,1.573
0.151,0.499,-1.183,-133.916,-33.061,-2.229
0.125,0.532,-1.140,-177.718,-26.962,-9.519
0.097,0.561,-1.047,-221.855,-8.931,-18.336
0.030,0.620,-0.879,-250.137,4.595,-25.290
-0.042,0.684,-0.695,-250.137,12.458,-25.198
-0.070,0.759,-0.541,-250.137,19.634,-21.947
-0.114,0.772,-0.421,-250.137,18.305,-13.908
-0.083,0.766,-0.236,-250.137,23.595,-3.198
0.011,0.757,0.057,-250.137,11.916,2.412
0.079,0.786,0.385,-250.137,17.137,0.282
0.114,0.856,0.624,-250.137,16.840,-6.405
0.080,0.909,0.762,-198.015,14.847,-15.275
0.005,0.998,0.730,-135.893,4.786,-17.115
-0.031,1.028,0.594,-98.107,-2.656,-11.000
-0.030,1.028,0.487,-77.786,-5.137,-3.916
0.012,1.009,0.458,-63.008,-5.557,1.344
0.054,0.995,0.424,-51.359,-1.420,2.504
0.072,0.982,0.421,-39.053,3.786,0.496
0.056,0.975,0.433,-25.779,5.046,0.603
0.068,0.946,0.423,-12.863,5.206,0.053
0.071,0.950,0.326,-6.092,4.656,-3.382
0.066,0.951,0.276,-7.840,4.389,-5.397
0.043,0.941,0.254,-10.641,2.885,-6.473
0.016,0.952,0.272,-12.656,4.153,-5.038
0.022,0.950,0.290,-13.237,5.061,-3.725
0.020,0.942,0.310,-10.328,5.718,-2.916
0.021,0.941,0.310,-6.786,2.733,-1.855
0.034,0.935,0.289,-4.573,3.038,-1.092
0.032,0.925,0.292,-3.557,2.832,-2.573
0.048,0.937,0.290,-1.855,2.664,-3.855
0.023,0.932,0.291,-0.046,1.542,-4.588
0.010,0.935,0.269,0.275,1.489,-4.656
0.006,0.943,0.261,-1.687,3.534,-3.435
0.009,0.940,0.262,-3.550,4.145,-3.687
0.008,0.941,0.289,-3.702,3.534,-4.191

0.159,1.070,0.624,42.802,49.252,0.069
0.104,1.229,1.004,70.947,69.954,2.679
-0.023,1.182,1.420,146.153,90.931,12.443
-0.240,1.008,1.795,250.130,94.107,41.382
-0.405,0.591,1.831,250.130,77.534,84.389
-0.294,0.144,1.338,250.130,30.718,122.832
-0.106,-0.198,0.596,250.130,-28.710,120.153
0.058,-0.382,-0.404,250.130,-100.359,96.038
-0.017,0.003,-2.000,250.130,-250.137,68.611
0.074,0.108,-2.000,250.130,-221.908,74.916
0.279,0.144,-2.000,138.519,-64.534,29.191
0.147,0.167,-2.000,-35.160,11.939,-0.168
0.089,0.073,-1.478,-118.969,29.107,-19.565
-0.113,0.260,-0.948,-144.015,0.397,-14.412
-0.040,0.431,-0.943,-155.130,-11.305,-8.107
0.062,0.517,-0.943,-183.794,-8.595,-11.565
0.033,0.589,-0.777,-203.374,-3.779,-18.290
0.007,0.687,-0.692,-215.420,1.298,-21.366
0.003,0.773,-0.660,-229.550,14.473,-20.992
-0.002,0.805,-0.644,-250.137,20.840,-19.473
0.014,0.779,-0.596,-250.137,25.794,-23.908
-0.034,0.778,-0.509,-250.137,35.519,-27.252
-0.084,0.761,-0.351,-250.137,38.214,-23.786
-0.121,0.783,-0.064,-250.137,19.687,-14.504
-0.084,0.811,0.245,-250.137,15.840,-4.748
0.013,0.833,0.417,-250.137,13.435,-1.374
0.023,0.831,0.485,-212.374,9.344,-2.931
0.040,0.939,0.483,-180.206,8.924,-5.260
0.044,0.950,0.519,-154.992,7.893,-11.176
0.014,0.981,0.518,-134.473,9.779,-16.313
-0.050,1.012,0.538,-114.473,9.718,-18.405
-0.086,1.033,0.586,-88.366,6.710,-11.786
-0.093,1.012,0.589,-59.008,3.962,-2.855
-0.056,1.006,0.505,-37.229,4.031,4.366
-0.020,0.979,0.462,-25.298,1.206,8.130
0.032,0.948,0.403,-15.450,1.496,7.542
0.060,0.942,0.347,-11.008,3.435,4.794
0.067,0.933,0.327,-10.214,5.481,1.023
0.048,0.927,0.332,-7.954,5.405,-2.824
0.016,0.941,0.328,-4.000,2.168,-4.511
-0.009,0.935,0.302,-0.656,-0.771,-3.260
0.002,0.934,0.269,-0.214,1.130,-1.710
0.015,0.926,0.268,-2.206,1.832,-1.847
0.039,0.925,0.275,-4.786,3.534,-5.191
0.029,0.921,0.280,-8.053,5.977,-9.603
-0.026,0.930,0.311,-8.008,4.870,-11.153
-0.062,0.941,0.317,-3.542,2.107,-7.420
-0.057,0.940,0.307,-1.130,-0.130,-4.137
-0.036,0.931,0.289,-0.550,-0.260,-3.099
-0.029,0.926,0.273,-1.588,2.038,-3.374

0.121,1.061,0.646,20.397,40.901,4.511
0.066,1.031,0.914,55.313,68.634,-2.328
0.029,1.187,1.433,120.168,73.595,2.779
-0.276,0.920,1.703,250.130,72.389,24.977
-0.454,0.630,1.565,250.130,37.565,58.053
-0.396,0.390,1.079,250.130,-4.267,87.237
-0.184,0.161,0.394,250.130,-25.855,96.962
0.027,0.080,-0.345,250.130,-52.168,87.351
0.118,0.073,-1.056,250.130,-68.527,72.282
-0.004,0.354,-2.000,250.130,-116.679,60.405
0.244,0.245,-2.000,214.160,-97.901,50.145
0.274,0.234,-2.000,55.092,-18.328,12.779
0.004,0.318,-1.403,-42.725,-1.466,-3.931
-0.029,0.392,-0.995,-72.756,-10.794,-4.351
-0.020,0.468,-0.964,-82.817,-15.611,-6.748
0.045,0.522,-1.064,-111.618,-14.122,-11.771
0.062,0.547,-1.061,-149.519,1.290,-21.206
0.037,0.600,-1.043,-196.183,18.046,-28.763
0.013,0.655,-0.925,-245.351,27.969,-30.763
0.025,0.706,-0.759,-250.137,36.282,-35.321
-0.020,0.745,-0.626,-250.137,39.695,-40.244
-0.141,0.750,-0.442,-250.137,36.740,-39.443
-0.221,0.729,-0.197,-250.137,31.733,-25.252
-0.184,0.768,0.052,-250.137,25.351,-8.985
-0.102,0.821,0.298,-250.137,14.542,-1.939
-0.063,0.835,0.475,-250.137,12.115,-0.023
-0.021,0.874,0.651,-244.985,9.244,-0.382
0.025,0.919,0.724,-188.107,3.664,-2.290
0.066,0.958,0.726,-135.435,-1.137,-7.244
0.052,0.981,0.626,-96.672,-1.260,-10.542
0.050,0.988,0.552,-71.771,2.924,-13.206
0.019,0.984,0.492,-56.847,6.366,-16.038
-0.021,0.985,0.472,-45.557,6.511,-16.221
-0.059,0.987,0.476,-33.641,1.626,-12.969
-0.073,0.996,0.471,-17.214,-0.527,-4.809
-0.053,0.959,0.415,-5.756,-1.244,2.160
0.002,0.936,0.350,0.153,-3.183,3.405
0.043,0.926,0.316,0.534,-2.718,0.634
0.054,0.927,0.291,-0.237,0.397,-4.160
0.021,0.921,0.273,-1.374,2.412,-8.519
-0.015,0.927,0.258,-3.336,2.832,-11.336
-0.068,0.940,0.271,-4.611,1.664,-9.145
-0.066,0.936,0.291,-5.061,1.611,-5.122
-0.093,0.943,0.306,-2.550,-1.809,-2.198
-0.065,0.940,0.309,2.679,-0.153,2.374
-0.031,0.928,0.296,4.122,0.252,2.336
-0.012,0.924,0.291,3.580,1.076,-0.382
-0.041,0.931,0.288,3.725,2.336,-1.053
-0.022,0.923,0.273,1.908,2.679,-1.550
-0.016,0.922,0.264,-1.290,4.763,-4.969

0.138,1.063,0.650,33.511,49.992,6.687
0.061,1.064,0.928,66.023,75.817,0.183
-0.018,1.163,1.432,142.992,84.130,2.084
-0.338,0.970,1.699,250.130,86.313,35.916
-0.422,0.671,1.696,250.130,59.183,78.611
-0.219,0.259,1.390,250.130,11.168,107.679
-0.105,-0.220,0.745,250.130,-64.153,103.260
0.018,-0.399,-0.196,250.130,-133.176,74.725
-0.005,-0.290,-1.453,250.130,-186.649,45.336
-0.151,0.072,-2.000,250.130,-244.931,35.611
-0.049,0.107,-2.000,160.046,-114.000,39.908
0.021,0.146,-2.000,-25.634,-23.473,22.229
-0.121,0.174,-1.541,-122.756,8.771,11.511
-0.111,0.279,-0.965,-145.931,5.198,7.511
-0.004,0.398,-0.792,-144.282,7.992,-2.573
-0.025,0.509,-0.715,-144.290,1.817,-10.763
-0.083,0.578,-0.678,-137.779,1.267,-13.863
-0.044,0.684,-0.796,-146.412,3.435,-15.038
-0.100,0.754,-0.796,-167.595,11.718,-14.313
-0.093,0.793,-0.738,-186.893,20.252,-11.420
-0.076,0.812,-0.693,-205.618,33.847,-11.275
-0.090,0.837,-0.670,-240.481,36.947,-10.733
-0.132,0.857,-0.592,-250.137,40.641,-7.557
-0.126,0.802,-0.399,-250.137,46.420,2.641
-0.054,0.739,-0.182,-250.137,46.176,4.786
0.017,0.752,0.056,-250.137,44.374,-1.229
-0.066,0.763,0.244,-250.137,24.099,-11.511
-0.057,0.909,0.449,-250.137,17.855,-13.115
-0.116,0.913,0.566,-194.595,17.519,-8.260
-0.116,0.957,0.549,-146.985,12.565,-1.137
-0.100,0.981,0.476,-118.977,9.130,4.412
-0.053,0.989,0.418,-104.298,10.237,7.977
-0.017,0.988,0.425,-95.534,12.206,9.145
0.005,0.986,0.479,-83.000,13.870,9.481
0.030,0.966,0.518,-67.443,12.366,6.885
0.019,0.981,0.530,-48.656,9.504,4.771
0.011,0.969,0.506,-29.061,7.321,5.519
0.032,0.964,0.445,-15.595,5.511,5.565
0.050,0.965,0.387,-10.000,2.573,3.489
0.036,0.949,0.392,-4.282,2.321,2.847
0.044,0.947,0.363,-0.061,2.450,0.626
0.016,0.947,0.350,3.260,1.527,0.130
0.022,0.924,0.305,4.863,-0.580,-0.847
0.028,0.922,0.259,3.855,-0.679,-4.412
-0.004,0.931,0.241,0.687,1.153,-5.244
-0.005,0.917,0.243,-2.092,3.802,-4.916
-0.026,0.922,0.267,-3.084,2.405,-6.702
-0.037,0.924,0.262,-1.290,3.000,-5.519
-0.047,0.924,0.264,-1.557,1.656,-5.038
-0.037,0.927,0.250,-3.870,3.183,-5.313

0.092,1.103,0.655,28.710,29.405,6.397
0.029,1.156,0.991,61.870,42.198,7.137
-0.155,1.023,1.112,129.748,45.718,19.710
-0.133,0.956,1.345,222.122,45.802,32.290
-0.199,0.819,1.353,250.130,53.130,52.412
-0.232,0.570,1.212,250.130,44.756,78.130
-0.139,0.310,0.865,250.130,15.924,92.885
-0.043,-0.017,0.242,250.130,-50.374,94.618
0.137,-0.109,-0.610,250.130,-113.191,68.817
0.179,0.017,-1.566,250.130,-139.214,41.328
0.107,0.287,-2.000,250.130,-151.053,24.832
0.176,0.231,-2.000,132.924,-68.580,13.695
0.034,0.259,-1.987,-11.802,-11.458,-6.328
-0.125,0.333,-1.253,-84.366,-1.237,-7.237
-0.112,0.433,-0.958,-105.122,-7.336,-1.855
-0.060,0.521,-0.859,-116.954,-12.840,-1.069
-0.035,0.559,-0.897,-128.328,-13.023,-2.420
0.011,0.601,-0.987,-152.611,-4.634,-4.122
0.027,0.648,-0.961,-190.824,15.313,-9.824
0.033,0.680,-0.916,-229.275,32.237,-14.023
0.032,0.717,-0.728,-250.137,40.695,-18.389
0.017,0.725,-0.620,-250.137,44.740,-23.115
0.010,0.731,-0.471,-250.137,54.397,-28.649
-0.085,0.742,-0.238,-250.137,57.198,-30.908
-0.162,0.781,0.037,-250.137,43.206,-26.115
-0.206,0.819,0.249,-250.137,23.420,-12.931
-0.109,0.883,0.423,-250.137,17.282,2.641
-0.042,0.869,0.589,-220.779,13.786,6.321
-0.008,0.920,0.642,-178.969,6.618,2.641
0.029,1.007,0.630,-147.153,3.649,-2.641
-0.021,0.977,0.609,-111.916,5.817,-4.771
-0.025,1.000,0.548,-82.573,7.481,-2.198
0.005,0.982,0.500,-62.664,9.298,1.878
0.008,0.979,0.499,-49.611,7.588,3.740
0.026,0.967,0.512,-36.313,4.504,3.855
0.029,0.961,0.503,-20.504,0.282,3.817
0.032,0.957,0.451,-9.779,0.359,3.351
0.043,0.947,0.390,-3.137,1.313,2.145
0.055,0.932,0.339,-3.756,1.855,-0.756
0.026,0.942,0.318,-3.038,1.672,-1.450
0.038,0.926,0.304,-3.504,2.634,-1.595
0.044,0.914,0.294,-5.420,2.527,-4.557
0.028,0.905,0.292,-6.893,1.557,-6.908
0.022,0.914,0.282,-7.733,3.313,-9.656
-0.037,0.934,0.295,-8.275,3.992,-9.580
-0.041,0.932,0.306,-6.771,4.153,-6.977
-0.069,0.940,0.331,-2.817,-0.069,-3.351
-0.049,0.928,0.323,0.588,0.450,0.130
-0.013,0.920,0.300,-0.023,0.985,-0.931
-0.023,0.921,0.309,-1.084,1.695,-2.947

0.108,1.081,0.668,46.985,22.053,15.794
0.150,1.166,1.005,87.458,42.519,16.817
0.057,1.074,1.258,159.817,48.962,16.550
0.074,0.921,1.491,250.130,67.145,17.908
-0.171,0.593,1.452,250.130,48.107,29.847
-0.160,0.341,1.114,250.130,7.435,43.305
-0.115,0.152,0.375,250.130,-46.840,42.863
0.001,0.087,-0.404,250.130,-94.779,37.092
0.007,0.130,-1.335,250.130,-110.450,28.473
-0.013,0.268,-2.000,250.130,-99.641,27.214
0.047,0.289,-2.000,188.924,-49.153,23.443
0.019,0.292,-1.953,32.588,-9.656,10.710
-0.107,0.270,-1.368,-43.573,2.374,6.962
-0.150,0.367,-1.025,-81.435,-19.519,11.618
-0.098,0.419,-0.911,-89.282,-29.878,14.573
-0.045,0.508,-0.952,-98.580,-23.160,11.664
-0.008,0.560,-0.983,-117.496,-14.939,5.649
0.001,0.596,-0.986,-144.603,-1.672,-1.458
-0.011,0.656,-0.992,-178.031,10.679,-5.618
-0.006,0.689,-0.944,-217.290,20.099,-6.565
0.022,0.709,-0.863,-250.137,32.969,-9.725
0.009,0.708,-0.733,-250.137,43.008,-13.427
-0.017,0.709,-0.601,-250.137,52.611,-13.832
-0.031,0.684,-0.367,-250.137,55.359,-18.679
-0.087,0.687,-0.112,-250.137,52.496,-20.275
-0.115,0.709,0.180,-250.137,49.695,-15.344
-0.129,0.814,0.455,-250.137,31.611,-11.603
-0.132,0.865,0.660,-250.137,22.824,-2.260
-0.051,0.911,0.815,-214.893,19.489,4.840
-0.006,0.923,0.842,-153.107,7.015,4.000
0.025,0.962,0.773,-100.969,3.763,0.573
0.030,0.969,0.642,-67.756,6.809,-2.229
0.021,0.979,0.523,-52.695,6.710,-5.229
0.007,0.982,0.489,-45.496,7.534,-4.641
0.015,0.956,0.449,-38.153,8.794,-2.985
-0.005,0.965,0.474,-28.954,3.412,-1.084
0.002,0.946,0.492,-14.916,1.786,3.015
0.027,0.920,0.431,-4.916,2.557,3.779
0.041,0.914,0.389,-1.099,2.519,1.527
0.032,0.917,0.358,-0.687,2.710,-0.427
0.024,0.921,0.329,-3.588,0.924,-1.824
0.002,0.928,0.320,-5.916,1.885,-0.359
-0.006,0.921,0.360,-3.840,-0.206,0.687
0.008,0.908,0.354,1.176,-0.069,1.069
0.009,0.904,0.337,3.565,-1.832,-0.145
0.004,0.905,0.306,2.924,-0.298,-1.908
0.013,0.906,0.289,-0.107,3.473,-3.389
-0.002,0.906,0.295,-3.542,5.237,-5.053
-0.014,0.917,0.326,-5.084,6.336,-5.954
-0.056,0.922,0.342,-2.878,2.031,-4.458

0.083,1.033,0.735,31.000,32.366,5.450
0.111,1.083,0.962,62.779,46.985,2.679
0.073,1.121,1.261,119.550,48.771,1.435
-0.146,0.931,1.461,220.542,38.099,19.122
-0.241,0.724,1.446,250.130,26.237,33.466
-0.255,0.567,1.161,250.130,5.443,52.817
-0.232,0.371,0.655,250.130,-31.183,65.634
-0.094,0.214,0.031,250.130,-88.443,72.626
0.044,0.118,-0.716,250.130,-119.672,64.916
0.123,0.184,-1.371,250.130,-119.115,46.626
0.047,0.348,-2.000,250.130,-147.221,37.763
0.165,0.256,-2.000,154.710,-69.397,19.313
0.074,0.324,-1.866,27.702,-22.122,-5.733
-0.091,0.403,-1.277,-41.969,-0.244,-8.550
-0.062,0.478,-0.908,-56.420,4.916,-10.992
-0.058,0.488,-0.853,-54.427,7.878,-14.756
-0.034,0.570,-0.968,-72.191,13.870,-19.840
-0.054,0.637,-1.038,-106.107,21.252,-17.939
-0.082,0.677,-1.008,-147.305,29.366,-12.504
-0.033,0.679,-0.944,-190.672,35.489,-10.840
0.039,0.702,-0.846,-237.267,38.466,-15.145
0.029,0.741,-0.757,-250.137,46.168,-20.168
-0.050,0.736,-0.551,-250.137,46.748,-19.779
-0.161,0.738,-0.245,-250.137,49.649,-5.779
-0.107,0.792,0.022,-250.137,47.649,7.550
-0.057,0.791,0.212,-250.137,41.534,7.947
-0.006,0.854,0.307,-250.137,29.344,6.252
0.030,0.913,0.388,-235.992,21.466,1.832
0.037,0.972,0.475,-207.870,17.420,-0.809
0.027,0.970,0.564,-172.878,17.641,-1.832
0.048,0.976,0.596,-135.504,18.573,-2.611
0.052,0.985,0.603,-101.015,14.122,-6.321
0.018,1.000,0.561,-73.901,7.817,-7.695
0.002,1.015,0.557,-48.664,1.084,-3.824
0.014,0.988,0.494,-28.023,2.611,0.824
0.034,0.986,0.422,-16.779,4.160,1.931
0.059,0.965,0.378,-12.290,6.084,1.435
0.085,0.943,0.336,-10.817,7.573,-1.565
0.086,0.937,0.292,-11.290,7.855,-6.458
0.046,0.955,0.285,-12.779,3.725,-9.786
0.014,0.942,0.292,-10.550,2.580,-6.893
-0.005,0.935,0.298,-6.771,0.626,-5.702
-0.008,0.937,0.297,-1.573,-0.206,-2.374
-0.004,0.933,0.271,-0.573,-1.275,-1.481
0.004,0.933,0.260,-1.718,-0.290,-1.336
0.010,0.933,0.281,-2.779,1.519,-1.702
0.024,0.930,0.279,-3.489,2.595,-4.160
0.004,0.933,0.279,-3.389,4.412,-5.809
-0.013,0.943,0.283,-3.740,4.687,-6.489
-0.028,0.939,0.280,-3.542,3.962,-5.267

0.105,1.074,0.683,22.366,33.313,1.847
0.202,1.235,1.009,43.260,62.931,-2.779
0.091,1.316,1.426,91.534,73.672,4.733
-0.187,1.115,1.843,195.275,83.450,22.374
-0.422,0.766,2.000,250.130,49.458,57.855
-0.479,0.306,1.956,250.130,6.817,97.847
-0.330,-0.253,1.332,250.130,-37.924,118.069
-0.140,-0.674,0.458,250.130,-106.206,111.763
-0.020,-0.767,-0.716,250.130,-198.489,81.061
-0.191,-0.152,-2.000,250.130,-250.137,63.275
0.061,-0.118,-2.000,250.130,-178.015,76.939
0.181,-0.108,-2.000,97.321,-38.481,51.046
0.247,-0.110,-2.000,-92.061,16.863,10.779
0.172,0.042,-1.413,-176.168,56.771,-28.153
0.056,0.249,-0.798,-188.756,54.924,-50.824
-0.133,0.496,-0.396,-170.061,21.412,-46.191
-0.212,0.687,-0.336,-130.595,-12.527,-16.130
-0.094,0.695,-0.501,-91.305,-12.511,-0.817
-0.038,0.715,-0.741,-83.779,-5.863,-0.634
-0.010,0.735,-0.906,-101.695,3.496,-0.420
0.028,0.746,-1.018,-142.710,14.023,-1.008
0.084,0.761,-1.030,-195.824,25.191,-4.618
0.067,0.762,-0.933,-247.924,38.878,-9.519
0.013,0.761,-0.647,-250.137,50.817,-10.595
0.002,0.742,-0.442,-250.137,56.496,-7.557
-0.012,0.737,-0.247,-250.137,54.977,-7.855
-0.046,0.780,0.031,-250.137,47.466,-10.420
-0.075,0.861,0.232,-250.137,43.550,-10.458
-0.054,0.917,0.368,-238.069,37.221,-6.031
-0.064,0.933,0.451,-201.183,27.557,-5.863
-0.070,0.988,0.461,-163.252,16.939,-4.718
-0.050,1.017,0.436,-130.878,16.794,0.221
-0.026,1.012,0.408,-105.466,21.214,6.824
0.049,1.031,0.373,-97.679,19.832,6.221
-0.003,0.993,0.443,-80.809,18.198,4.947
0.026,1.013,0.465,-61.496,15.366,7.908
0.028,1.006,0.480,-41.015,12.321,10.061
0.055,0.995,0.453,-22.977,7.344,12.412
0.109,0.971,0.374,-11.603,5.183,10.252
0.142,0.963,0.300,-8.198,5.092,3.901
0.128,0.954,0.260,-10.481,7.168,-2.389
0.096,0.952,0.259,-13.718,7.588,-6.260
0.067,0.957,0.286,-12.313,6.847,-6.000
0.059,0.950,0.291,-6.863,4.756,-5.679
0.051,0.943,0.253,-3.748,1.137,-6.954
0.033,0.947,0.230,-1.603,0.542,-5.870
0.031,0.948,0.211,-3.000,2.458,-5.679
0.016,0.948,0.229,-4.427,1.947,-5.351
0.008,0.941,0.241,-4.176,2.756,-5.321
-0.001,0.947,0.246,-4.351,3.168,-4.878

0.165,1.080,0.604,26.924,36.206,7.542
0.122,1.124,0.862,59.053,51.878,-2.588
0.112,1.177,1.099,117.855,65.405,0.229
-0.085,0.961,1.338,211.985,55.893,11.611
-0.119,0.818,1.365,250.130,52.076,22.779
-0.208,0.626,1.217,250.130,33.305,41.817
-0.230,0.449,0.920,250.130,-29.420,64.443
-0.092,0.139,0.452,250.130,-66.137,70.176
-0.007,-0.204,-0.254,250.130,-123.145,62.794
0.071,-0.214,-1.250,250.130,-179.450,33.069
0.026,0.133,-2.000,250.130,-196.840,14.328
-0.031,0.110,-2.000,192.221,-86.374,17.573
-0.009,0.157,-2.000,18.496,-13.710,1.290
-0.193,0.232,-1.488,-78.702,7.626,1.305
-0.133,0.332,-0.949,-101.282,4.626,2.313
-0.096,0.433,-0.797,-98.969,1.580,1.954
-0.066,0.504,-0.849,-97.229,-1.931,3.160
-0.031,0.516,-0.995,-115.252,2.176,-1.519
-0.047,0.578,-1.094,-149.282,16.359,-6.366
-0.046,0.641,-1.055,-194.069,26.198,-7.519
-0.009,0.682,-0.953,-244.756,41.969,-9.763
-0.010,0.708,-0.816,-250.137,49.252,-13.679
-0.044,0.740,-0.636,-250.137,56.992,-11.954
-0.119,0.767,-0.316,-250.137,59.015,-5.000
-0.127,0.775,-0.086,-250.137,50.924,7.359
-0.059,0.801,0.166,-250.137,46.641,12.008
0.008,0.838,0.241,-250.137,39.359,9.107
0.021,0.876,0.412,-244.344,19.916,5.366
0.050,0.909,0.442,-200.466,14.977,-0.397
0.070,0.959,0.435,-165.794,13.145,-5.382
0.044,0.997,0.439,-135.977,11.252,-9.183
0.030,0.997,0.444,-111.115,13.069,-10.718
0.004,0.980,0.414,-89.267,10.687,-8.824
0.034,1.014,0.379,-78.336,9.863,-7.618
0.024,0.960,0.405,-66.916,10.695,-8.840
-0.017,0.993,0.395,-55.534,4.023,-7.786
-0.017,0.997,0.401,-44.267,5.771,-1.939
0.015,0.966,0.387,-34.496,4.473,0.893
0.030,0.958,0.371,-26.489,2.649,-0.344
0.022,0.962,0.349,-21.382,1.511,-0.870
0.041,0.949,0.355,-17.099,3.443,-1.328
0.051,0.938,0.342,-15.153,3.786,-4.840
0.031,0.937,0.321,-14.130,5.412,-8.924
0.008,0.946,0.316,-13.893,5.939,-10.359
-0.007,0.937,0.305,-12.122,6.275,-9.794
-0.041,0.940,0.311,-9.229,2.679,-8.282
-0.046,0.943,0.309,-5.947,3.038,-4.153
-0.022,0.920,0.308,-4.366,1.962,-2.427
-0.016,0.930,0.292,-3.931,1.557,-4.786
-0.034,0.934,0.293,-4.588,3.015,-4.420

0.121,1.058,0.629,23.168,38.748,-4.183
0.156,1.169,0.905,44.573,59.023,-10.947
0.059,1.177,1.181,90.992,65.443,-2.092
-0.078,0.937,1.510,195.863,61.611,5.565
-0.251,0.636,1.678,250.130,29.206,18.458
-0.366,0.260,1.465,250.130,-12.939,39.473
-0.302,-0.049,0.777,250.130,-66.771,50.702
-0.222,-0.196,-0.152,250.130,-139.405,45.145
-0.128,0.003,-1.222,250.130,-183.939,38.053
0.042,0.219,-2.000,250.130,-138.237,26.931
-0.012,0.320,-2.000,168.260,-92.687,21.954
0.057,0.245,-2.000,16.832,-17.084,5.313
-0.118,0.316,-1.399,-65.183,3.061,-10.863
-0.190,0.424,-0.991,-88.244,7.748,-12.710
-0.194,0.522,-0.890,-98.382,1.351,-9.450
-0.172,0.537,-0.909,-108.000,4.672,-6.847
-0.161,0.566,-1.023,-136.962,7.107,-5.985
-0.119,0.605,-1.082,-187.641,18.649,-8.405
-0.119,0.608,-1.040,-241.481,34.649,-10.603
-0.118,0.604,-0.928,-250.137,50.237,-11.405
-0.135,0.622,-0.730,-250.137,56.718,-10.550
-0.164,0.640,-0.444,-250.137,59.183,-7.122
-0.178,0.667,-0.173,-250.137,59.733,-2.122
-0.168,0.702,0.156,-250.137,55.863,3.435
-0.130,0.768,0.363,-250.137,47.183,5.237
-0.130,0.857,0.593,-250.137,32.527,8.366
-0.070,0.898,0.767,-245.901,20.237,13.427
0.002,0.897,0.826,-193.023,12.878,13.977
0.073,0.919,0.797,-137.305,9.527,7.565
0.099,0.962,0.712,-97.473,9.634,-3.252
0.051,0.969,0.648,-71.779,11.290,-10.870
-0.012,0.982,0.621,-51.466,12.924,-12.962
-0.061,0.982,0.595,-31.397,8.840,-8.519
-0.071,0.962,0.542,-14.321,2.374,-2.534
-0.031,0.936,0.489,-2.466,-3.130,1.466
0.023,0.927,0.416,3.634,-4.282,0.511
0.027,0.923,0.350,2.313,-1.824,-4.947
0.001,0.922,0.324,-2.908,2.641,-8.641
-0.011,0.911,0.314,-6.611,4.947,-11.191
-0.039,0.917,0.311,-8.313,6.458,-13.641
-0.077,0.907,0.311,-9.420,4.076,-14.427
-0.108,0.919,0.316,-9.649,3.733,-12.855
-0.124,0.922,0.323,-10.046,2.756,-9.763
-0.146,0.921,0.351,-7.412,1.008,-4.802
-0.122,0.916,0.354,-3.725,3.198,-0.748
-0.118,0.910,0.349,-0.565,-0.099,0.748
-0.089,0.908,0.336,1.298,1.641,3.168
-0.082,0.907,0.329,1.137,1.550,2.779
-0.058,0.905,0.328,0.153,3.038,1.908
-0.043,0.901,0.319,-2.176,6.130,-0.947

0.115,1.072,0.676,14.084,48.382,-3.550
0.069,1.122,0.895,44.351,70.840,2.817
0.027,1.113,1.229,100.458,91.015,-3.053
-0.170,1.032,1.601,187.939,90.397,21.244
-0.287,0.814,2.000,250.130,87.519,51.489
-0.611,0.158,2.000,250.130,39.908,104.702
-0.458,-0.502,1.424,250.130,-72.382,125.137
-0.319,-0.922,0.364,250.130,-203.702,92.015
-0.400,-0.710,-1.331,250.130,-250.137,57.107
-0.359,0.021,-2.000,250.130,-250.137,68.130
0.035,0.034,-2.000,250.130,-83.740,69.267
0.077,0.010,-2.000,-28.649,18.397,31.053
-0.133,0.085,-1.753,-164.450,57.168,10.832
-0.136,0.169,-0.955,-207.382,54.977,-0.481
-0.199,0.327,-0.471,-194.046,26.733,-5.977
-0.278,0.603,-0.417,-164.962,-9.420,4.832
-0.179,0.690,-0.509,-137.863,-16.107,19.076
-0.119,0.722,-0.621,-127.389,-11.290,18.183
-0.082,0.753,-0.728,-128.649,1.206,8.298
-0.108,0.804,-0.805,-142.695,21.824,2.885
-0.119,0.829,-0.837,-168.137,38.198,1.687
-0.117,0.847,-0.795,-206.107,57.061,3.885
-0.097,0.869,-0.690,-250.137,67.084,8.824
-0.070,0.840,-0.536,-250.137,79.282,13.779
-0.011,0.744,-0.364,-250.137,87.061,10.649
-0.054,0.712,-0.026,-250.137,70.496,5.115
-0.024,0.779,0.254,-250.137,57.588,1.809
-0.003,0.826,0.420,-250.137,47.573,-4.679
-0.022,0.886,0.579,-222.656,32.168,-7.893
-0.047,0.934,0.644,-169.344,21.099,-6.832
-0.066,0.979,0.618,-119.977,12.725,-1.977
-0.036,0.996,0.566,-80.107,11.206,3.718
0.003,0.984,0.447,-56.496,13.214,6.405
0.048,0.976,0.371,-47.672,16.260,2.992
0.025,0.978,0.369,-43.656,12.084,-2.267
0.003,0.969,0.384,-36.374,11.374,-2.489
-0.003,0.970,0.386,-24.855,6.008,-0.947
0.024,0.962,0.364,-14.321,6.756,1.321
0.040,0.948,0.304,-12.481,4.489,-1.931
0.044,0.939,0.296,-14.580,6.115,-5.122
0.055,0.939,0.281,-17.450,7.985,-10.198
0.024,0.927,0.252,-20.130,11.328,-15.802
-0.044,0.939,0.265,-22.748,9.099,-17.718
-0.072,0.937,0.275,-21.420,9.595,-13.786
-0.068,0.934,0.289,-20.557,8.183,-11.191
-0.077,0.934,0.307,-19.038,3.763,-9.939
-0.082,0.932,0.317,-15.198,2.290,-7.817
-0.095,0.935,0.334,-10.595,1.504,-4.954
-0.083,0.931,0.335,-4.916,3.076,-1.611
-0.070,0.922,0.309,-2.443,2.718,-0.626

0.099,1.104,0.669,25.122,23.328,7.450
-0.060,1.067,0.900,55.313,30.664,13.107
0.048,1.111,1.125,105.771,36.069,19.031
-0.103,0.917,1.293,187.565,25.962,26.626
-0.052,0.812,1.433,250.130,36.298,37.397
-0.196,0.595,1.403,250.130,38.107,41.542
-0.312,0.309,1.064,250.130,-8.504,56.901
-0.222,0.254,0.421,250.130,-70.687,62.176
-0.247,0.190,-0.158,250.130,-144.229,66.321
-0.153,0.036,-0.913,250.130,-193.038,67.328
-0.242,0.232,-2.000,250.130,-250.137,59.046
0.024,0.220,-2.000,232.107,-130.160,48.321
0.035,0.235,-2.000,64.366,-28.359,23.023
-0.160,0.242,-1.664,-47.924,10.412,12.221
-0.200,0.363,-1.069,-89.855,11.908,13.534
-0.115,0.406,-0.798,-90.550,4.878,13.901
-0.056,0.523,-0.823,-93.435,1.168,7.809
0.010,0.614,-0.876,-105.168,14.023,-2.160
-0.011,0.646,-0.915,-126.344,23.511,-13.336
-0.021,0.698,-0.958,-155.748,38.412,-21.626
-0.062,0.756,-0.929,-201.366,54.229,-24.847
-0.109,0.775,-0.786,-241.595,68.221,-21.542
-0.108,0.813,-0.590,-250.137,73.008,-11.328
-0.092,0.829,-0.376,-250.137,75.656,-2.130
-0.049,0.834,-0.210,-250.137,72.718,3.412
-0.047,0.869,-0.039,-250.137,63.145,4.687
-0.041,0.875,0.204,-250.137,50.038,4.840
0.008,0.904,0.309,-241.130,41.267,2.809
0.025,0.902,0.367,-200.481,32.519,-0.351
0.036,0.937,0.395,-161.893,16.939,-4.366
0.032,0.948,0.386,-128.191,11.855,-7.038
0.040,0.960,0.328,-99.679,14.618,-7.031
0.063,0.971,0.254,-86.611,17.687,-9.244
0.066,0.973,0.252,-84.931,20.366,-14.977
-0.017,0.998,0.312,-81.351,15.000,-17.931
-0.051,1.003,0.368,-68.924,11.756,-13.336
-0.044,0.968,0.375,-49.511,10.481,-5.336
-0.006,0.948,0.316,-37.779,8.916,-2.878
0.033,0.948,0.261,-36.290,8.053,-5.344
0.039,0.947,0.235,-41.725,12.305,-8.458
0.030,0.951,0.235,-50.252,16.053,-12.122
-0.024,0.955,0.314,-54.137,10.061,-13.786
-0.026,0.966,0.377,-45.847,9.137,-10.595
-0.017,0.934,0.414,-32.893,9.405,-10.557
-0.018,0.934,0.396,-21.931,5.740,-11.618
-0.038,0.940,0.361,-17.252,3.954,-12.168
-0.081,0.951,0.363,-15.771,0.267,-11.275
-0.100,0.952,0.383,-11.366,-0.107,-6.893
-0.082,0.929,0.390,-4.557,0.687,-3.832
-0.058,0.927,0.348,0.771,1.427,-2.824

0.048,1.084,0.724,18.267,35.466,7.672
-0.052,1.123,0.933,49.122,43.802,10.046
-0.037,1.116,1.281,119.679,55.954,17.244
-0.133,0.899,1.469,221.031,45.947,30.634
-0.138,0.677,1.567,250.130,36.580,32.405
-0.263,0.334,1.309,250.130,4.542,46.351
-0.212,0.053,0.594,250.130,-57.550,55.176
-0.163,-0.129,-0.230,250.130,-140.153,48.214
-0.066,0.031,-1.304,250.130,-186.779,34.412
-0.031,0.394,-2.000,250.130,-182.084,21.359
-0.032,0.377,-2.000,157.962,-83.260,28.275
0.084,0.362,-1.981,8.267,-0.794,5.153
-0.110,0.404,-1.224,-65.634,22.748,-7.183
-0.155,0.524,-0.822,-82.542,13.924,-3.595
-0.132,0.555,-0.682,-76.359,4.061,-1.061
-0.117,0.645,-0.768,-77.679,-4.420,-2.977
-0.107,0.733,-0.885,-100.672,2.275,-4.214
-0.130,0.752,-0.891,-130.847,14.710,-4.275
-0.146,0.759,-0.885,-163.466,24.573,-1.344
-0.153,0.797,-0.806,-203.924,36.908,4.534
-0.118,0.793,-0.688,-244.756,47.137,9.832
-0.102,0.794,-0.554,-250.137,56.924,11.084
-0.158,0.819,-0.349,-250.137,54.740,13.595
-0.151,0.809,-0.090,-250.137,54.679,22.534
-0.032,0.792,0.057,-250.137,57.672,24.519
0.052,0.781,0.195,-250.137,56.053,15.458
0.093,0.816,0.312,-250.137,49.557,0.458
0.038,0.882,0.461,-231.023,34.382,-11.137
-0.003,0.919,0.572,-191.366,28.794,-13.420
-0.015,0.941,0.629,-147.565,23.031,-11.855
-0.017,0.970,0.644,-111.405,18.290,-8.282
-0.000,0.969,0.614,-81.282,12.740,-4.878
0.021,0.969,0.585,-59.679,11.267,-4.931
-0.014,0.982,0.573,-39.443,2.756,-2.855
0.013,0.970,0.539,-17.809,2.885,1.893
0.041,0.945,0.484,-1.985,1.237,2.817
0.067,0.928,0.412,4.534,-0.122,-1.137
0.061,0.926,0.357,5.099,-3.420,-6.481
0.030,0.928,0.328,3.885,-2.336,-9.366
0.004,0.925,0.304,2.115,0.137,-11.397
-0.014,0.921,0.298,0.382,2.115,-12.305
-0.036,0.909,0.277,-1.298,2.779,-13.489
-0.083,0.920,0.265,-3.015,-1.069,-12.863
-0.106,0.928,0.276,-2.275,-0.481,-7.153
-0.102,0.927,0.287,-1.168,-0.046,-2.237
-0.088,0.924,0.299,-0.679,-1.557,0.214
-0.071,0.926,0.307,-0.344,-0.252,1.382
-0.053,0.917,0.309,-0.496,0.519,1.611
-0.038,0.924,0.307,-0.427,2.588,1.000
-0.026,0.912,0.297,-2.641,5.229,-0.718

0.042,1.120,0.722,34.786,42.672,15.344
-0.046,1.072,0.992,80.412,45.817,22.053
0.075,1.159,1.248,161.290,62.053,32.817
-0.060,0.926,1.471,250.130,82.344,44.718
-0.188,0.593,1.512,250.130,118.626,66.542
-0.278,0.235,1.185,250.130,72.695,99.824
-0.136,-0.036,0.436,250.130,-40.267,108.969
0.033,-0.225,-0.413,250.130,-158.580,90.878
0.041,0.121,-1.928,250.130,-250.137,49.191
0.145,0.276,-2.000,250.130,-179.901,36.527
0.215,0.269,-2.000,133.954,-47.947,10.656
-0.015,0.338,-1.915,-22.046,13.015,-7.069
-0.155,0.307,-1.093,-79.359,2.473,0.427
-0.145,0.452,-0.859,-86.817,-6.832,4.573
-0.097,0.542,-0.846,-93.076,-10.832,7.977
-0.103,0.618,-0.931,-113.031,-13.885,12.061
-0.057,0.671,-0.955,-143.015,0.855,16.824
-0.015,0.691,-0.936,-180.397,15.214,13.969
-0.025,0.726,-0.833,-219.031,23.382,12.939
-0.000,0.750,-0.764,-250.137,33.053,12.718
0.063,0.758,-0.713,-250.137,51.588,7.366
0.023,0.743,-0.532,-250.137,66.924,2.313
0.026,0.729,-0.345,-250.137,76.504,3.389
0.062,0.747,-0.084,-250.137,84.092,2.382
0.071,0.747,0.156,-250.137,81.107,-5.878
0.094,0.797,0.331,-250.137,70.595,-17.779
0.050,0.789,0.489,-250.137,56.763,-25.573
0.041,0.853,0.623,-231.168,38.176,-28.122
0.054,0.944,0.702,-180.282,27.328,-26.809
0.028,0.941,0.712,-132.321,18.695,-28.023
0.003,0.976,0.678,-92.061,10.931,-25.206
-0.007,0.976,0.589,-63.863,6.290,-21.061
-0.014,0.955,0.531,-45.282,3.412,-16.489
-0.008,0.951,0.477,-34.107,3.260,-14.176
-0.010,0.944,0.441,-26.588,3.397,-12.641
-0.002,0.929,0.422,-20.840,4.641,-11.740
0.009,0.914,0.388,-17.412,4.031,-12.695
0.001,0.914,0.370,-16.702,2.924,-13.931
-0.017,0.909,0.358,-17.099,1.450,-15.000
-0.054,0.926,0.372,-16.412,3.153,-13.794
-0.083,0.917,0.409,-12.397,0.298,-10.252
-0.081,0.911,0.393,-7.168,-0.756,-7.206
-0.069,0.915,0.368,-4.573,-2.489,-5.328
-0.065,0.911,0.367,-3.076,-1.542,-2.313
-0.059,0.908,0.364,-2.695,0.977,-1.252
-0.050,0.908,0.365,-3.069,2.084,-0.328
-0.043,0.897,0.369,-2.359,3.115,0.740
-0.030,0.896,0.374,-1.237,3.557,-0.481
-0.038,0.897,0.378,-0.313,2.870,-1.015
-0.032,0.908,0.355,0.618,4.000,-0.092

0.092,1.056,0.736,24.802,29.405,13.344
-0.063,1.016,1.072,59.443,48.649,14.878
0.002,1.203,1.415,123.702,57.046,26.817
-0.158,0.867,1.625,229.924,55.573,46.962
-0.257,0.618,1.652,250.130,24.725,67.771
-0.298,0.355,1.327,250.130,-6.046,82.626
-0.272,0.092,0.567,250.130,-58.031,93.405
-0.052,-0.035,-0.196,250.130,-119.695,84.550
0.025,-0.003,-1.029,250.130,-174.817,61.191
0.074,0.410,-2.000,250.130,-188.168,39.687
0.248,0.385,-2.000,202.924,-93.695,27.221
0.256,0.276,-1.972,72.336,-21.176,-1.695
0.041,0.349,-1.462,-16.634,-6.977,-19.695
-0.099,0.437,-1.041,-56.260,-11.511,-20.107
-0.141,0.515,-0.898,-65.847,-18.374,-14.221
-0.111,0.610,-0.941,-83.107,-14.489,-7.687
-0.099,0.669,-1.017,-114.992,2.931,-4.664
-0.091,0.711,-0.979,-154.298,24.107,-3.267
-0.067,0.746,-0.924,-198.504,39.618,-2.550
-0.070,0.759,-0.785,-241.267,48.916,1.328
-0.061,0.776,-0.575,-250.137,49.969,7.740
-0.004,0.799,-0.413,-250.137,58.855,10.198
0.036,0.804,-0.312,-250.137,65.885,11.191
0.062,0.800,-0.159,-250.137,67.076,9.405
0.091,0.802,-0.008,-250.137,64.672,0.679
0.107,0.885,0.167,-250.137,57.336,-10.557
0.071,0.883,0.378,-250.137,54.771,-19.718
0.031,0.921,0.557,-226.473,37.893,-23.832
0.022,0.921,0.649,-170.962,27.176,-20.183
0.027,0.946,0.669,-115.763,17.702,-16.221
0.034,0.976,0.594,-71.473,6.916,-14.656
0.027,0.985,0.455,-47.412,2.893,-12.489
0.020,0.993,0.375,-38.061,-0.031,-10.695
0.024,0.990,0.348,-32.855,3.145,-7.962
0.027,0.985,0.346,-27.412,2.870,-5.740
0.040,0.953,0.350,-19.214,3.557,-5.092
0.047,0.940,0.326,-13.511,2.069,-6.160
0.039,0.937,0.290,-13.206,1.687,-7.916
0.030,0.939,0.267,-15.115,0.389,-10.321
0.005,0.947,0.270,-15.763,2.473,-10.718
-0.004,0.941,0.265,-16.206,5.626,-10.260
-0.006,0.929,0.264,-18.458,5.069,-11.176
-0.047,0.935,0.269,-19.924,2.420,-11.687
-0.065,0.947,0.308,-17.176,2.183,-7.550
-0.053,0.941,0.324,-12.084,1.908,-3.977
-0.038,0.939,0.325,-7.817,1.145,-2.794
-0.027,0.940,0.294,-6.557,3.802,-2.176
-0.032,0.931,0.305,-7.076,3.870,-1.962
-0.031,0.938,0.311,-7.145,4.550,-0.565
-0.021,0.925,0.325,-5.664,4.145,-0.015

0.032,1.069,0.757,19.282,27.176,11.313
-0.130,1.067,0.983,53.687,25.817,18.328
-0.092,1.109,1.336,124.450,29.328,35.939
-0.140,0.850,1.445,227.908,22.229,57.573
-0.143,0.712,1.479,250.130,8.840,66.802
-0.195,0.391,1.215,250.130,-16.740,85.656
-0.100,0.087,0.500,250.130,-65.336,90.779
0.018,-0.117,-0.225,250.130,-144.435,73.618
0.091,-0.082,-1.077,250.130,-202.397,42.076
0.041,0.320,-2.000,250.130,-205.344,11.725
0.057,0.297,-2.000,241.969,-129.389,7.573
0.084,0.152,-2.000,75.802,-25.802,-12.748
-0.078,0.289,-1.681,-52.427,15.221,-24.870
-0.182,0.375,-1.025,-97.969,10.137,-15.847
-0.150,0.507,-0.788,-100.374,3.069,-7.817
-0.135,0.614,-0.792,-100.427,-1.214,-2.458
-0.110,0.660,-0.884,-111.733,-1.466,4.137
-0.051,0.694,-0.949,-138.992,12.855,8.252
-0.006,0.718,-0.962,-177.985,24.450,9.183
0.050,0.749,-0.867,-223.977,35.183,9.847
0.122,0.755,-0.720,-250.137,53.191,3.198
0.144,0.755,-0.644,-250.137,76.298,-10.771
0.018,0.738,-0.471,-250.137,92.267,-21.244
-0.061,0.761,-0.207,-250.137,94.611,-19.183
-0.034,0.755,0.085,-250.137,88.046,-16.985
0.028,0.773,0.294,-250.137,72.519,-20.802
0.012,0.809,0.475,-250.137,57.756,-29.557
-0.011,0.866,0.601,-250.137,36.183,-37.107
-0.045,0.921,0.688,-203.473,24.275,-39.130
-0.085,0.964,0.689,-158.214,16.809,-34.427
-0.098,0.982,0.659,-111.756,14.779,-24.557
-0.099,0.998,0.567,-78.420,11.542,-15.183
-0.063,0.981,0.494,-59.412,8.099,-6.550
-0.045,0.974,0.478,-46.824,1.634,-2.542
-0.033,0.964,0.497,-32.244,-3.725,3.000
0.016,0.935,0.499,-12.962,-0.328,5.740
0.037,0.924,0.435,-0.481,-1.420,2.634
0.036,0.927,0.373,4.748,-0.863,-1.183
0.033,0.915,0.329,2.771,-0.115,-3.992
0.030,0.933,0.267,-2.679,-0.015,-6.069
0.028,0.927,0.271,-8.168,5.786,-6.977
0.006,0.921,0.298,-10.618,7.244,-9.901
-0.030,0.921,0.315,-10.702,4.893,-11.603
-0.086,0.933,0.337,-8.092,-0.130,-7.718
-0.075,0.925,0.330,-2.389,-1.053,-2.718
-0.055,0.919,0.315,0.206,-2.130,-0.328
-0.033,0.918,0.293,-0.145,0.748,-0.412
-0.027,0.914,0.291,-1.656,3.489,-2.458
-0.027,0.914,0.301,-3.122,5.031,-4.237
-0.061,0.921,0.316,-3.282,4.198,-3.366

0.037,1.086,0.693,12.496,34.237,13.779
0.063,1.143,0.977,42.748,42.786,14.252
-0.019,1.060,1.172,104.260,42.351,20.214
-0.129,0.957,1.313,199.153,26.939,40.870
-0.199,0.793,1.397,250.130,30.275,57.641
-0.282,0.589,1.280,250.130,14.641,83.206
-0.166,0.356,0.861,250.130,-27.656,99.733
-0.036,0.146,0.213,250.130,-84.481,101.420
0.118,-0.022,-0.313,250.130,-139.214,82.756
0.166,-0.095,-1.037,250.130,-195.702,43.076
0.106,0.161,-2.000,250.130,-250.137,8.473
0.068,0.240,-2.000,206.267,-153.771,0.046
-0.014,0.269,-2.000,19.687,-33.977,-18.878
-0.255,0.329,-1.504,-100.634,-1.107,-13.031
-0.213,0.455,-0.963,-134.588,-3.000,-2.206
-0.160,0.660,-0.701,-140.267,10.924,5.038
-0.141,0.742,-0.604,-139.267,9.947,10.885
-0.031,0.767,-0.594,-132.000,13.771,11.580
0.007,0.816,-0.653,-128.679,28.870,3.947
0.006,0.833,-0.732,-144.427,34.160,-1.794
0.014,0.869,-0.718,-172.015,48.473,-4.969
0.022,0.888,-0.622,-205.359,60.458,-7.214
0.030,0.883,-0.542,-234.145,72.550,-9.122
0.035,0.855,-0.399,-250.137,74.328,-10.611
0.041,0.849,-0.264,-250.137,76.817,-18.489
-0.018,0.804,-0.037,-250.137,66.191,-24.924
0.000,0.829,0.104,-250.137,54.939,-29.718
0.005,0.861,0.228,-236.031,46.473,-34.779
-0.024,0.903,0.310,-202.069,38.832,-37.374
-0.090,0.949,0.360,-173.359,26.756,-36.153
-0.136,0.988,0.399,-145.664,14.183,-28.107
-0.138,1.005,0.419,-116.962,10.427,-14.374
-0.067,1.007,0.413,-90.580,13.290,-2.534
0.019,0.980,0.421,-69.496,13.397,0.000
0.051,0.962,0.388,-51.145,12.656,-5.221
0.031,0.977,0.362,-41.023,10.885,-7.687
0.029,0.962,0.345,-33.756,7.740,-8.847
0.026,0.967,0.326,-28.634,5.954,-11.634
0.004,0.954,0.316,-25.076,6.649,-13.893
-0.024,0.966,0.316,-22.611,5.954,-15.656
-0.054,0.965,0.328,-18.053,3.153,-14.435
-0.074,0.960,0.322,-10.298,1.473,-11.824
-0.076,0.947,0.286,-4.649,0.107,-10.214
-0.088,0.941,0.238,-3.420,-2.504,-8.168
-0.076,0.937,0.218,-4.626,0.260,-7.534
-0.087,0.932,0.218,-6.092,1.336,-7.252
-0.104,0.945,0.242,-6.962,1.260,-5.687
-0.108,0.938,0.252,-6.710,2.733,-2.878
-0.096,0.934,0.263,-5.863,2.496,-1.626
-0.094,0.940,0.253,-7.321,3.847,-1.061

0.018,1.101,0.708,31.595,31.924,8.969
-0.098,1.192,1.008,68.542,30.046,17.870
-0.187,1.062,1.302,150.817,47.588,33.313
-0.366,1.035,1.488,250.130,80.947,60.267
-0.740,0.775,1.546,250.130,29.565,124.099
-0.407,0.358,1.189,250.130,-35.214,168.527
-0.078,0.030,0.439,250.130,-83.710,167.878
0.173,-0.182,-0.374,250.130,-142.115,144.649
0.532,-0.234,-1.239,250.130,-156.985,83.084
0.468,0.162,-2.000,250.130,-172.191,12.168
0.312,0.118,-2.000,182.901,-69.435,-12.542
0.223,0.106,-2.000,30.885,-10.962,-37.588
0.090,0.197,-1.623,-74.489,21.618,-57.115
-0.120,0.407,-1.053,-120.992,18.618,-52.206
-0.193,0.562,-0.733,-131.779,-0.061,-29.008
-0.195,0.685,-0.680,-131.733,-21.397,-4.656
-0.074,0.734,-0.758,-136.183,-16.802,4.832
-0.042,0.799,-0.796,-149.221,3.985,7.038
0.004,0.863,-0.736,-172.611,19.641,9.534
0.071,0.889,-0.625,-194.550,33.221,10.595
0.137,0.889,-0.499,-212.313,41.626,6.809
0.180,0.865,-0.385,-224.145,46.626,-5.870
0.144,0.847,-0.322,-232.679,52.061,-18.214
0.101,0.839,-0.215,-239.069,46.786,-26.489
0.087,0.837,-0.120,-238.992,42.221,-36.870
0.033,0.854,-0.016,-228.313,34.084,-49.397
-0.037,0.912,0.061,-215.191,33.763,-57.397
-0.151,0.951,0.154,-203.168,32.649,-57.885
-0.208,0.976,0.215,-190.527,28.137,-49.542
-0.245,0.998,0.297,-171.573,24.252,-33.031
-0.210,1.006,0.384,-146.221,20.786,-14.382
-0.148,0.999,0.461,-114.198,16.099,0.382
-0.058,0.965,0.498,-79.061,10.206,6.901
0.022,0.969,0.442,-51.527,7.061,5.298
0.023,0.968,0.389,-36.817,3.183,0.733
0.011,0.976,0.314,-31.908,4.008,-2.130
-0.010,0.985,0.288,-31.969,5.947,-2.626
-0.003,0.979,0.305,-31.122,7.244,-1.641
0.015,0.951,0.333,-25.160,7.336,-1.511
0.031,0.936,0.331,-15.779,3.992,-4.557
0.017,0.930,0.284,-7.405,0.763,-10.168
-0.034,0.941,0.242,-6.412,-1.725,-11.908
-0.060,0.948,0.223,-8.084,-0.527,-10.313
-0.068,0.952,0.213,-10.000,0.473,-8.824
-0.086,0.943,0.229,-11.069,1.511,-7.710
-0.090,0.943,0.251,-9.595,2.237,-5.756
-0.079,0.934,0.259,-8.076,3.809,-4.198
-0.065,0.932,0.245,-8.420,3.786,-3.962
-0.069,0.942,0.243,-10.008,4.084,-4.450
-0.067,0.940,0.267,-11.580,4.977,-4.420

-0.011,1.087,0.686,36.221,20.351,15.176
-0.116,1.109,0.955,67.962,25.489,25.069
-0.093,1.098,1.358,148.160,43.908,33.008
-0.237,0.896,1.605,250.130,54.313,58.336
-0.317,0.495,1.549,250.130,49.115,87.824
-0.223,0.233,0.971,250.130,6.069,104.321
-0.094,0.045,0.171,250.130,-53.802,107.397
0.073,-0.070,-0.586,250.130,-129.641,94.000
0.185,-0.091,-1.264,250.130,-178.870,54.008
0.075,0.285,-2.000,250.130,-227.130,39.702
0.225,0.202,-2.000,160.725,-107.221,16.496
0.006,0.296,-2.000,20.198,-20.244,-9.634
-0.214,0.337,-1.412,-66.603,-6.160,-1.664
-0.180,0.445,-0.976,-88.824,-14.611,6.855
-0.139,0.524,-0.810,-86.191,-5.389,10.031
-0.104,0.625,-0.810,-86.405,-0.214,10.351
-0.029,0.706,-0.783,-94.130,8.298,8.260
-0.004,0.755,-0.774,-104.046,17.634,4.740
0.025,0.798,-0.794,-122.313,29.725,1.427
0.040,0.867,-0.802,-148.008,43.374,-1.229
0.058,0.875,-0.743,-182.565,50.786,-2.969
0.063,0.884,-0.593,-206.824,58.702,-4.504
0.054,0.879,-0.461,-221.168,56.336,-6.656
0.072,0.844,-0.339,-226.786,50.397,-8.748
0.076,0.810,-0.274,-224.176,44.351,-14.374
0.085,0.810,-0.185,-218.458,39.267,-22.229
0.078,0.834,-0.140,-210.389,36.244,-32.000
0.036,0.872,-0.082,-204.145,33.901,-42.359
-0.027,0.902,-0.033,-198.351,30.809,-50.260
-0.082,0.930,0.009,-193.466,29.267,-51.809
-0.153,0.970,0.099,-189.977,26.649,-49.725
-0.195,0.974,0.192,-181.534,22.947,-42.099
-0.213,0.967,0.270,-164.947,16.878,-30.389
-0.191,1.000,0.323,-141.069,14.947,-14.031
-0.130,0.989,0.367,-116.916,14.969,-1.153
-0.071,0.981,0.380,-93.076,12.954,4.573
-0.002,0.966,0.367,-75.649,10.344,3.221
-0.007,0.972,0.376,-65.687,10.687,-2.450
-0.049,0.979,0.380,-58.878,11.664,-6.519
-0.072,0.984,0.405,-50.939,11.557,-6.557
-0.071,0.966,0.421,-40.031,9.412,-4.618
-0.062,0.955,0.395,-28.740,5.756,-3.160
-0.042,0.956,0.365,-19.252,4.275,-1.977
-0.030,0.951,0.340,-11.130,4.344,-1.817
-0.039,0.934,0.321,-3.763,3.527,-2.321
-0.044,0.929,0.263,-0.176,1.931,-3.412
-0.055,0.919,0.233,-0.015,1.031,-2.580
-0.050,0.928,0.201,-2.771,2.931,-2.611
-0.044,0.927,0.214,-8.038,4.931,-2.641
-0.052,0.919,0.232,-10.664,5.580,-3.481

-0.018,1.064,0.706,41.992,30.771,16.458
-0.014,1.210,0.984,77.725,46.832,29.229
-0.196,1.080,1.426,172.168,62.824,46.244
-0.296,0.825,1.606,250.130,65.137,78.809
-0.290,0.500,1.435,250.130,38.466,106.282
-0.131,0.319,0.702,250.130,5.618,115.595
0.031,0.130,-0.052,250.130,-35.198,111.847
0.220,0.044,-0.704,250.130,-90.267,86.076
0.066,0.496,-2.000,250.130,-138.061,48.733
0.210,0.269,-2.000,250.130,-172.176,32.710
0.229,0.276,-2.000,119.481,-81.092,-2.534
-0.080,0.389,-1.740,-6.840,-6.634,-20.519
-0.212,0.341,-1.184,-64.176,-18.634,-7.458
-0.182,0.490,-0.948,-82.115,-23.496,0.771
-0.125,0.575,-0.874,-91.115,-12.771,3.847
-0.088,0.667,-0.908,-114.031,-3.962,5.122
-0.055,0.749,-0.920,-147.107,18.359,2.855
-0.035,0.799,-0.883,-192.092,35.023,4.084
0.015,0.834,-0.789,-236.221,53.298,7.015
0.056,0.833,-0.627,-250.137,63.122,6.214
0.110,0.814,-0.433,-250.137,69.695,-1.550
0.079,0.813,-0.250,-250.137,72.351,-11.435
0.060,0.812,-0.076,-250.137,66.252,-20.115
0.069,0.822,0.101,-250.137,54.504,-27.321
0.065,0.858,0.216,-250.137,46.641,-33.328
0.028,0.856,0.326,-239.405,41.267,-38.198
0.001,0.888,0.407,-207.053,28.992,-42.863
-0.045,0.924,0.433,-169.084,16.908,-46.282
-0.076,0.960,0.425,-137.267,7.466,-40.779
-0.082,0.976,0.363,-108.145,6.611,-33.229
-0.078,0.982,0.325,-90.725,9.901,-25.298
-0.072,0.969,0.336,-81.824,10.183,-20.519
-0.087,0.981,0.388,-73.893,8.000,-17.145
-0.093,0.981,0.431,-63.542,6.489,-14.634
-0.097,0.981,0.458,-50.710,4.924,-9.954
-0.081,0.964,0.431,-33.847,4.908,-5.893
-0.063,0.953,0.407,-21.771,3.969,-2.412
-0.039,0.932,0.358,-16.427,2.389,-2.420
-0.034,0.923,0.334,-14.061,1.420,-5.221
-0.045,0.933,0.325,-14.076,2.275,-7.985
-0.065,0.941,0.324,-12.931,2.718,-9.008
-0.091,0.937,0.344,-8.084,2.855,-7.336
-0.101,0.930,0.323,-2.939,2.023,-4.405
-0.084,0.917,0.295,-1.267,1.321,-1.840
-0.076,0.918,0.280,-2.885,2.145,-1.702
-0.065,0.917,0.276,-4.580,3.130,-2.145
-0.081,0.925,0.290,-5.397,3.672,-1.649
-0.079,0.919,0.304,-4.061,3.969,-0.901
-0.078,0.921,0.311,-2.931,3.565,-0.023
-0.059,0.917,0.298,-2.580,3.191,-0.557

-0.037,1.060,0.698,51.244,39.771,14.130
-0.039,1.034,0.979,91.107,63.015,21.130
-0.087,1.067,1.272,151.977,60.046,25.527
-0.308,0.928,1.515,246.939,53.702,43.489
-0.475,0.650,1.581,250.130,26.557,76.542
-0.240,0.466,1.027,250.130,7.290,102.107
-0.186,0.278,0.330,250.130,2.023,114.794
-0.021,0.090,-0.300,250.130,-36.595,118.809
0.165,0.090,-0.852,250.130,-89.481,91.847
0.204,0.093,-1.365,250.130,-127.656,65.687
0.105,0.401,-2.000,250.130,-171.504,47.534
0.418,0.242,-2.000,132.832,-83.947,6.344
0.027,0.377,-1.812,7.931,4.313,-28.511
-0.228,0.353,-1.167,-53.443,1.015,-17.893
-0.187,0.490,-0.986,-73.947,-2.779,-5.504
-0.183,0.609,-0.919,-93.183,2.290,1.916
-0.210,0.681,-0.902,-117.321,-2.023,12.863
-0.133,0.742,-0.877,-142.695,4.137,24.786
-0.033,0.786,-0.802,-166.458,17.160,29.290
0.050,0.850,-0.711,-188.550,31.168,28.458
0.130,0.878,-0.601,-205.290,44.489,21.115
0.139,0.895,-0.523,-222.130,54.565,13.191
0.158,0.895,-0.501,-242.275,62.031,4.305
0.174,0.898,-0.408,-250.137,66.275,-5.534
0.140,0.884,-0.227,-250.137,61.924,-17.092
0.086,0.823,-0.056,-250.137,51.992,-24.389
0.078,0.832,0.099,-250.137,33.282,-30.374
0.100,0.877,0.180,-230.527,21.198,-37.214
0.076,0.901,0.200,-200.656,18.382,-42.840
0.028,0.929,0.250,-173.718,19.389,-46.282
-0.025,0.968,0.271,-150.244,17.412,-46.076
-0.074,0.984,0.309,-128.565,13.740,-39.458
-0.095,0.996,0.312,-107.450,10.397,-31.206
-0.083,0.992,0.319,-87.771,6.443,-21.198
-0.051,0.991,0.313,-69.748,2.038,-12.321
-0.017,0.977,0.295,-55.084,4.573,-6.489
0.022,0.969,0.285,-44.099,5.076,-6.168
0.034,0.968,0.287,-36.328,4.336,-8.710
0.013,0.954,0.294,-29.672,4.809,-11.901
-0.014,0.956,0.277,-25.122,2.924,-13.412
-0.030,0.946,0.259,-21.389,1.046,-13.779
-0.043,0.948,0.226,-20.977,0.420,-13.458
-0.055,0.956,0.218,-23.427,2.481,-13.237
-0.053,0.943,0.222,-26.221,2.450,-11.420
-0.052,0.939,0.237,-26.267,4.985,-11.740
-0.076,0.937,0.250,-26.008,4.252,-12.137
-0.092,0.947,0.257,-24.588,2.206,-10.855
-0.103,0.941,0.279,-22.580,2.298,-6.786
-0.086,0.941,0.287,-19.679,3.603,-3.359
-0.062,0.939,0.295,-18.252,4.473,-2.115

0.033,1.082,0.735,36.374,34.198,16.679
-0.001,1.202,1.065,75.267,48.962,24.954
-0.112,1.089,1.494,160.962,79.168,41.099
-0.468,0.880,1.822,250.130,80.779,71.672
-0.643,0.470,1.757,250.130,57.214,136.489
-0.349,0.133,1.121,250.130,29.405,176.435
-0.119,-0.278,0.262,250.130,-14.817,187.595
0.204,-0.494,-0.576,250.130,-113.901,164.611
0.016,0.147,-2.000,250.130,-250.137,136.443
0.617,-0.034,-2.000,250.130,-229.053,70.718
0.428,0.135,-2.000,155.885,-91.008,29.908
0.175,0.227,-2.000,-10.573,-6.130,-33.565
-0.032,0.205,-1.435,-96.221,20.252,-41.435
-0.156,0.373,-0.973,-126.603,14.679,-35.885
-0.196,0.496,-0.711,-122.763,7.176,-24.611
-0.240,0.694,-0.693,-118.122,-3.718,-8.237
-0.195,0.836,-0.726,-125.802,-5.855,13.359
-0.070,0.871,-0.715,-134.153,4.313,26.595
0.039,0.876,-0.704,-144.527,16.443,30.183
0.166,0.889,-0.735,-166.931,28.298,23.901
0.243,0.889,-0.733,-198.863,50.679,8.580
0.206,0.886,-0.652,-234.924,70.595,-5.870
0.151,0.843,-0.494,-250.137,77.595,-14.595
0.133,0.800,-0.293,-250.137,66.420,-18.885
0.169,0.767,-0.146,-250.137,53.183,-30.344
0.132,0.750,-0.027,-250.137,40.069,-43.748
0.110,0.832,0.036,-250.137,30.908,-60.305
0.010,0.889,0.091,-231.076,29.840,-70.870
-0.071,0.941,0.134,-213.672,31.763,-69.718
-0.141,0.959,0.207,-199.908,30.863,-61.992
-0.159,0.977,0.307,-183.015,29.115,-48.664
-0.164,0.974,0.394,-162.656,26.168,-35.374
-0.125,0.970,0.470,-133.435,22.817,-21.901
-0.068,0.966,0.513,-102.344,17.603,-12.443
-0.041,0.963,0.513,-71.817,9.847,-5.954
0.009,0.963,0.464,-47.626,8.290,-2.115
0.034,0.953,0.409,-33.000,8.519,-1.878
0.040,0.942,0.382,-24.061,5.748,-4.832
0.034,0.934,0.352,-18.855,3.122,-7.908
0.019,0.935,0.341,-14.832,2.290,-10.359
-0.006,0.939,0.335,-10.748,1.611,-12.282
-0.028,0.928,0.305,-7.198,1.206,-12.985
-0.043,0.935,0.266,-7.282,0.588,-12.282
-0.057,0.928,0.263,-9.244,1.534,-10.282
-0.069,0.923,0.265,-10.809,2.198,-9.206
-0.077,0.924,0.279,-11.321,3.481,-8.290
-0.084,0.921,0.291,-10.832,3.756,-6.885
-0.081,0.927,0.285,-10.099,4.458,-5.298
-0.073,0.933,0.300,-10.176,3.405,-3.595
-0.066,0.922,0.316,-9.008,3.397,-2.893

-0.060,1.035,0.689,25.107,10.786,7.702
-0.122,1.068,0.866,61.641,18.618,18.901
-0.110,1.124,1.179,121.443,37.122,31.496
-0.232,0.911,1.323,214.176,21.542,54.252
-0.207,0.779,1.267,250.130,6.641,73.397
-0.115,0.603,1.074,250.130,-2.496,85.573
-0.083,0.474,0.585,250.130,-20.160,93.046
-0.039,0.324,0.144,250.130,-62.237,94.344
0.054,0.164,-0.253,250.130,-86.740,87.725
0.125,0.069,-0.779,250.130,-123.137,65.481
0.102,0.072,-1.287,250.130,-165.298,33.160
0.075,0.251,-2.000,250.130,-191.137,23.481
0.066,0.232,-2.000,127.473,-74.641,-3.748
-0.132,0.377,-1.935,7.160,-12.824,-9.397
-0.219,0.333,-1.367,-63.107,-2.573,2.221
-0.155,0.427,-1.026,-88.107,-3.336,10.725
-0.103,0.534,-0.921,-102.496,-1.641,11.832
-0.080,0.602,-0.913,-118.244,-0.191,11.099
-0.031,0.640,-0.888,-127.374,18.008,3.359
-0.025,0.713,-0.887,-142.947,34.702,0.756
-0.005,0.765,-0.875,-169.824,48.481,-0.466
0.020,0.814,-0.823,-200.550,60.885,-0.198
0.074,0.829,-0.721,-230.771,73.061,-4.130
0.064,0.853,-0.590,-250.137,78.924,-7.656
0.022,0.834,-0.442,-250.137,77.115,-9.366
0.014,0.832,-0.286,-250.137,67.771,-8.153
0.012,0.822,-0.155,-250.137,57.893,-7.679
0.038,0.818,-0.062,-250.137,42.809,-10.290
0.084,0.856,0.020,-250.137,31.550,-20.389
0.076,0.893,0.092,-246.344,30.504,-29.595
0.064,0.902,0.180,-224.855,34.588,-34.229
0.043,0.920,0.236,-201.221,36.550,-36.794
0.004,0.937,0.289,-179.137,37.672,-38.313
-0.048,0.956,0.346,-155.282,30.481,-37.168
-0.076,0.966,0.373,-130.954,21.405,-32.153
-0.098,0.989,0.374,-109.237,17.473,-24.000
-0.097,0.997,0.360,-90.107,13.969,-13.435
-0.051,0.996,0.374,-75.565,11.893,-4.931
-0.007,0.983,0.403,-60.046,9.771,-1.008
0.023,0.963,0.392,-44.855,7.504,-0.115
0.030,0.959,0.364,-32.336,5.405,-1.809
0.014,0.950,0.313,-25.519,3.756,-2.878
0.015,0.948,0.273,-23.985,3.176,-4.412
-0.002,0.945,0.257,-26.076,2.786,-5.603
-0.019,0.946,0.260,-28.611,3.969,-5.847
-0.023,0.946,0.278,-29.855,4.099,-6.092
-0.031,0.944,0.279,-29.069,4.573,-6.481
-0.042,0.946,0.302,-26.855,4.366,-5.855
-0.043,0.933,0.301,-22.618,5.321,-3.710
-0.043,0.930,0.297,-19.267,5.244,-3.000

-0.013,1.033,0.756,-3.641,27.443,5.618
-0.265,1.002,1.283,20.626,10.908,25.313
-0.166,1.211,1.991,120.672,6.817,45.191
-0.283,0.777,2.000,250.130,-30.786,86.618
-0.297,0.363,1.928,250.130,-75.374,103.954
-0.330,-0.008,0.762,250.130,-123.878,129.412
-0.058,-0.228,-0.369,250.130,-143.076,125.000
0.239,-0.296,-1.303,250.130,-142.824,91.122
0.418,-0.159,-2.000,250.130,-107.863,37.710
0.364,0.026,-2.000,250.130,-61.679,2.679
0.329,0.096,-2.000,95.084,-46.496,-6.649
0.128,0.175,-1.792,-6.450,-2.298,-28.573
-0.040,0.232,-1.235,-58.679,-6.496,-33.863
-0.107,0.354,-1.010,-72.916,-11.435,-31.855
-0.146,0.480,-0.988,-88.832,-18.550,-26.038
-0.171,0.557,-1.004,-109.252,-10.702,-14.573
-0.149,0.632,-1.057,-143.756,-0.389,-4.198
-0.095,0.711,-0.975,-183.992,23.244,5.992
-0.021,0.759,-0.830,-221.901,41.802,15.008
0.096,0.790,-0.644,-250.137,57.893,15.061
0.188,0.800,-0.453,-250.137,69.580,6.122
0.257,0.796,-0.256,-250.137,72.611,-10.412
0.241,0.821,-0.149,-250.137,78.076,-27.550
0.173,0.852,0.009,-250.137,77.611,-43.908
0.047,0.889,0.137,-250.137,70.519,-53.924
-0.011,0.925,0.283,-247.313,49.588,-60.313
-0.071,0.950,0.378,-218.557,30.527,-58.702
-0.103,0.973,0.419,-177.130,21.405,-45.985
-0.087,0.975,0.432,-138.802,21.672,-32.527
-0.066,0.984,0.410,-109.519,19.878,-23.305
-0.067,0.987,0.385,-93.626,16.282,-18.740
-0.052,0.983,0.367,-79.916,12.214,-14.542
-0.036,0.982,0.365,-66.878,14.412,-11.023
-0.017,0.976,0.357,-56.000,15.366,-9.611
-0.005,0.967,0.386,-46.702,13.954,-9.099
-0.009,0.961,0.389,-36.794,9.695,-9.580
-0.016,0.948,0.378,-28.527,5.878,-9.779
-0.023,0.953,0.349,-22.786,4.588,-10.305
-0.037,0.951,0.322,-19.992,3.382,-9.802
-0.038,0.947,0.328,-18.557,3.389,-9.015
-0.049,0.941,0.324,-15.908,1.687,-8.519
-0.043,0.937,0.309,-13.237,1.435,-8.809
-0.054,0.933,0.295,-11.557,1.412,-8.573
-0.067,0.928,0.286,-11.252,1.038,-7.595
-0.082,0.940,0.295,-12.053,1.519,-6.336
-0.087,0.941,0.317,-10.298,1.260,-3.206
-0.075,0.930,0.323,-6.664,0.771,0.137
-0.049,0.928,0.302,-4.275,1.924,0.718
-0.044,0.922,0.284,-4.656,2.298,-0.504
-0.026,0.917,0.281,-6.878,3.954,-1.473

0.018,1.036,0.782,27.260,10.809,5.420
-0.036,1.089,1.095,65.191,16.947,7.901
-0.112,1.061,1.422,135.916,20.756,14.206
-0.216,0.828,1.606,250.130,7.649,31.221
-0.296,0.644,1.524,250.130,-11.786,49.214
-0.341,0.465,1.034,250.130,-35.771,72.145
-0.296,0.189,0.389,250.130,-72.298,97.779
-0.091,0.016,-0.307,250.130,-116.519,98.489
0.144,0.035,-1.053,250.130,-132.580,74.084
0.234,0.126,-1.620,250.130,-121.427,41.916
0.098,0.415,-2.000,250.130,-105.908,22.153
0.267,0.271,-2.000,146.634,-77.634,3.489
0.111,0.349,-1.942,25.687,-4.863,-23.786
-0.037,0.396,-1.365,-50.260,2.519,-28.511
-0.134,0.483,-0.891,-67.901,8.389,-24.244
-0.145,0.591,-0.744,-59.282,13.931,-21.069
-0.146,0.684,-0.762,-60.679,9.008,-14.427
-0.145,0.744,-0.853,-75.313,5.580,-4.473
-0.104,0.764,-0.899,-97.840,12.099,3.183
-0.094,0.781,-0.926,-131.153,17.939,8.802
-0.059,0.822,-0.893,-177.122,23.809,16.076
-0.016,0.837,-0.784,-216.366,35.710,19.779
0.041,0.831,-0.674,-250.137,48.695,18.939
0.048,0.785,-0.547,-250.137,58.863,14.107
0.033,0.731,-0.394,-250.137,57.779,9.901
0.100,0.708,-0.238,-250.137,59.817,0.893
0.103,0.730,-0.091,-250.137,63.313,-13.649
0.038,0.759,0.120,-250.137,64.313,-26.244
-0.025,0.812,0.321,-250.137,65.786,-37.435
-0.061,0.861,0.449,-250.137,56.031,-43.427
-0.088,0.886,0.605,-232.015,44.863,-39.878
-0.087,0.913,0.682,-178.664,38.901,-30.817
-0.075,0.959,0.693,-130.977,27.985,-20.634
-0.048,0.948,0.673,-96.282,22.427,-12.504
-0.013,0.946,0.619,-66.000,15.359,-8.389
-0.001,0.929,0.572,-48.168,10.389,-7.519
0.012,0.936,0.520,-37.748,8.450,-8.466
0.007,0.932,0.505,-26.672,6.733,-9.221
0.007,0.923,0.487,-15.412,7.786,-8.527
0.003,0.896,0.456,-5.305,5.046,-9.122
-0.011,0.903,0.408,-1.061,1.763,-10.885
-0.027,0.899,0.355,-1.489,-1.046,-11.382
-0.043,0.905,0.322,-3.427,-0.611,-11.611
-0.064,0.900,0.310,-5.824,3.153,-10.450
-0.088,0.896,0.327,-7.458,3.977,-8.924
-0.098,0.903,0.339,-6.939,3.656,-5.908
-0.077,0.895,0.349,-6.198,3.702,-3.176
-0.073,0.896,0.345,-5.939,3.565,-2.855
-0.081,0.900,0.356,-5.916,3.244,-3.832
-0.092,0.905,0.377,-4.397,2.504,-1.626

-0.010,1.023,0.795,24.908,28.557,10.092
-0.153,1.000,1.024,57.863,21.382,14.855
-0.083,1.117,1.343,130.000,26.550,21.611
-0.404,0.869,1.669,238.641,23.252,51.214
-0.368,0.716,1.689,250.130,12.885,91.214
-0.409,0.469,1.530,250.130,-41.641,118.565
-0.300,0.160,1.005,250.130,-107.145,142.527
-0.057,-0.184,0.245,250.130,-162.992,146.885
0.234,-0.419,-0.560,250.130,-188.405,117.496
0.377,-0.518,-1.495,250.130,-172.588,61.099
0.392,-0.284,-2.000,250.130,-141.924,11.229
0.305,0.007,-2.000,189.137,-152.206,6.298
0.196,-0.019,-2.000,11.214,-20.534,-33.565
-0.081,0.146,-1.947,-124.679,25.626,-51.099
-0.217,0.344,-1.240,-187.076,38.481,-48.183
-0.279,0.521,-0.818,-210.473,30.977,-33.595
-0.325,0.628,-0.651,-207.656,26.221,-17.015
-0.295,0.778,-0.633,-206.756,23.137,3.160
-0.230,0.880,-0.667,-219.061,29.832,21.313
-0.133,0.926,-0.586,-238.802,45.061,35.092
-0.020,0.942,-0.441,-250.137,56.313,41.756
0.094,0.916,-0.296,-250.137,66.626,39.763
0.193,0.871,-0.216,-250.137,80.351,27.656
0.234,0.806,-0.128,-250.137,87.382,13.992
0.225,0.770,0.001,-250.137,82.649,-2.740
0.203,0.813,0.126,-250.137,74.450,-19.107
0.175,0.836,0.253,-237.038,66.435,-33.053
0.104,0.877,0.322,-205.756,55.275,-41.244
0.051,0.908,0.367,-175.939,43.740,-40.878
0.024,0.959,0.385,-152.038,35.382,-38.527
-0.029,0.975,0.377,-134.489,30.061,-33.496
-0.043,1.000,0.392,-122.122,24.725,-25.588
-0.039,0.977,0.397,-110.427,20.466,-16.977
0.022,0.973,0.417,-96.595,18.084,-10.298
0.051,0.949,0.439,-83.321,13.191,-8.031
0.067,0.932,0.431,-68.244,6.229,-7.656
0.109,0.932,0.424,-56.481,5.260,-10.076
0.115,0.905,0.401,-46.031,7.107,-15.290
0.080,0.931,0.395,-43.221,8.244,-20.687
0.039,0.911,0.393,-39.695,9.489,-24.137
0.008,0.929,0.413,-35.626,9.656,-26.664
-0.029,0.928,0.421,-30.153,8.191,-26.099
-0.052,0.922,0.416,-21.809,6.832,-23.244
-0.067,0.914,0.378,-15.015,4.931,-19.206
-0.068,0.918,0.336,-11.840,5.878,-14.954
-0.072,0.912,0.322,-12.947,6.198,-10.580
-0.068,0.911,0.350,-14.534,5.397,-7.473
-0.076,0.911,0.380,-12.244,3.412,-3.725
-0.051,0.903,0.382,-6.435,0.901,-0.809
-0.027,0.892,0.353,-2.901,1.802,0.901

0.007,1.011,0.802,26.374,5.115,7.061
-0.047,1.038,1.062,64.840,1.412,8.527
-0.152,0.973,1.330,138.023,-7.992,21.221
-0.129,0.882,1.329,233.275,-22.863,42.504
-0.172,0.647,1.240,250.130,-22.489,65.244
-0.141,0.600,0.943,250.130,-44.771,77.786
-0.082,0.492,0.465,250.130,-71.527,89.366
0.061,0.384,-0.056,250.130,-104.588,86.855
0.182,0.306,-0.474,250.130,-124.924,68.580
0.282,0.318,-0.970,250.130,-111.511,39.023
0.245,0.349,-1.283,250.130,-91.618,10.267
0.176,0.374,-1.474,250.130,-64.290,-9.168
0.108,0.444,-1.479,193.305,-40.939,-25.489
-0.071,0.488,-1.428,113.397,-19.198,-30.695
-0.145,0.581,-1.349,45.321,-10.015,-23.305
-0.159,0.625,-1.248,-13.466,-2.450,-10.557
-0.091,0.690,-1.118,-64.740,9.863,-2.519
-0.064,0.727,-0.971,-103.252,15.328,1.008
-0.044,0.739,-0.959,-135.985,22.740,3.580
-0.034,0.753,-0.975,-181.931,34.947,6.305
-0.053,0.798,-0.895,-232.748,48.191,9.595
-0.033,0.775,-0.724,-250.137,53.084,17.435
0.050,0.744,-0.490,-250.137,60.588,19.931
0.107,0.708,-0.281,-250.137,70.046,11.527
0.148,0.706,-0.119,-250.137,73.260,-0.458
0.148,0.747,0.078,-250.137,75.290,-16.939
0.125,0.806,0.299,-250.137,69.817,-31.969
0.077,0.869,0.442,-250.137,61.611,-37.229
0.022,0.899,0.566,-216.450,54.092,-36.924
-0.008,0.969,0.626,-179.023,39.840,-32.603
-0.047,0.987,0.673,-137.992,30.840,-26.542
-0.019,0.998,0.622,-99.031,21.580,-15.603
0.042,0.975,0.550,-71.519,17.985,-7.061
0.101,0.957,0.499,-52.733,15.260,-5.290
0.143,0.928,0.472,-39.389,10.229,-9.649
0.126,0.919,0.433,-28.092,3.740,-16.580
0.074,0.923,0.386,-18.672,0.427,-19.122
0.032,0.937,0.350,-15.656,1.611,-18.672
0.006,0.937,0.341,-16.244,1.359,-16.855
-0.017,0.936,0.340,-15.298,0.450,-14.794
-0.011,0.924,0.325,-11.702,1.015,-11.977
-0.008,0.918,0.294,-10.298,2.740,-10.863
-0.010,0.909,0.291,-11.931,3.015,-10.985
-0.016,0.915,0.290,-14.191,2.458,-11.458
-0.035,0.917,0.327,-14.420,2.084,-10.580
-0.053,0.920,0.355,-10.786,1.374,-8.252
-0.058,0.930,0.343,-6.817,3.695,-5.069
-0.058,0.927,0.340,-5.802,3.397,-2.336
-0.041,0.920,0.342,-5.550,4.069,0.092
-0.012,0.915,0.347,-6.008,3.275,0.840

-0.026,0.996,0.825,60.679,15.382,16.046
-0.023,1.090,1.019,105.344,12.328,26.473
-0.073,0.969,1.234,175.908,14.252,35.710
-0.142,0.936,1.396,250.130,20.557,48.542
-0.311,0.802,1.489,250.130,-0.473,76.176
-0.305,0.483,1.366,250.130,-55.122,112.870
-0.018,0.136,0.792,250.130,-88.527,120.947
0.151,-0.174,-0.046,250.130,-92.511,111.053
0.384,-0.341,-0.941,250.130,-100.046,78.527
0.269,0.252,-2.000,250.130,-127.870,31.305
0.534,0.096,-2.000,250.130,-139.473,5.809
0.220,0.156,-2.000,68.878,-40.076,-33.473
-0.116,0.229,-1.909,-84.351,-2.924,-39.023
-0.156,0.286,-1.253,-142.130,6.679,-32.672
-0.229,0.504,-0.875,-165.298,9.328,-18.527
-0.235,0.608,-0.748,-172.710,5.092,-4.969
-0.187,0.704,-0.746,-181.382,8.588,13.206
-0.062,0.759,-0.734,-194.878,20.389,24.450
0.035,0.800,-0.665,-210.786,35.237,27.336
0.111,0.853,-0.564,-229.557,46.427,24.878
0.168,0.850,-0.452,-244.443,56.702,17.313
0.175,0.856,-0.358,-250.137,63.840,8.481
0.222,0.838,-0.294,-250.137,78.389,-4.718
0.156,0.824,-0.114,-250.137,86.901,-14.412
0.136,0.797,0.047,-250.137,79.511,-24.183
0.171,0.821,0.292,-250.137,64.992,-36.695
0.158,0.853,0.453,-233.786,47.214,-51.954
0.048,0.914,0.506,-188.626,31.473,-59.748
-0.012,0.936,0.470,-147.191,28.214,-53.824
-0.039,0.969,0.397,-119.702,27.870,-43.244
-0.044,0.970,0.358,-104.412,23.649,-32.298
-0.007,0.959,0.359,-95.420,23.542,-24.023
0.014,0.962,0.400,-87.397,22.893,-20.260
0.007,0.967,0.462,-74.000,19.511,-17.679
0.008,0.944,0.479,-53.794,14.412,-13.099
0.006,0.938,0.454,-37.344,10.366,-8.656
0.020,0.926,0.428,-29.649,6.183,-5.618
0.058,0.919,0.409,-24.748,3.427,-7.183
0.053,0.910,0.408,-19.695,3.061,-12.137
0.022,0.904,0.395,-13.366,1.412,-16.298
-0.021,0.914,0.362,-9.878,1.656,-17.366
-0.066,0.932,0.345,-10.046,1.916,-15.046
-0.077,0.928,0.351,-9.344,1.542,-9.221
-0.056,0.917,0.349,-7.824,1.435,-5.557
-0.048,0.911,0.357,-6.115,2.244,-3.817
-0.037,0.910,0.344,-3.466,1.832,-3.458
-0.039,0.904,0.329,-2.282,3.565,-2.466
-0.037,0.908,0.331,-3.595,2.328,-0.710
-0.019,0.897,0.326,-4.344,2.145,-0.595
-0.007,0.894,0.331,-5.160,2.847,-1.534

-0.009,0.973,0.842,26.557,14.756,3.382
-0.025,1.052,1.088,64.718,4.221,6.756
-0.144,1.097,1.370,117.206,4.229,17.176
-0.349,0.983,1.631,204.076,-21.038,50.015
-0.490,0.626,1.553,250.130,-48.290,93.237
-0.298,0.437,0.997,250.130,-84.573,120.565
-0.131,0.289,0.259,250.130,-116.298,126.458
0.037,0.227,-0.308,250.130,-137.382,119.053
0.198,0.268,-0.765,250.130,-142.176,96.290
0.273,0.250,-1.221,250.130,-125.336,71.763
0.362,0.249,-1.607,250.130,-92.008,40.847
0.382,0.379,-1.929,202.229,-58.832,3.504
0.252,0.444,-1.842,79.023,-34.687,-23.511
0.056,0.492,-1.466,-8.069,-9.374,-36.931
-0.123,0.551,-1.156,-52.160,7.260,-33.504
-0.119,0.681,-0.978,-80.748,23.397,-20.733
-0.097,0.742,-0.812,-98.282,26.565,-10.565
-0.034,0.754,-0.761,-107.908,34.290,-1.634
0.070,0.767,-0.779,-125.443,44.832,-1.626
0.079,0.818,-0.757,-161.137,55.130,0.397
0.156,0.822,-0.659,-198.748,66.405,3.580
0.191,0.797,-0.514,-231.122,71.641,-2.137
0.195,0.762,-0.377,-250.137,69.626,-10.534
0.206,0.740,-0.273,-250.137,69.176,-18.931
0.254,0.741,-0.139,-250.137,71.420,-27.687
0.282,0.724,0.002,-250.137,67.611,-42.084
0.257,0.759,0.168,-250.137,64.603,-59.702
0.146,0.828,0.321,-249.450,62.557,-77.511
-0.024,0.914,0.455,-229.870,55.924,-82.817
-0.149,0.975,0.592,-208.336,43.687,-73.366
-0.190,0.988,0.683,-178.344,28.840,-54.840
-0.155,0.977,0.754,-136.290,23.290,-34.176
-0.092,0.996,0.777,-94.076,16.626,-20.038
-0.062,0.970,0.748,-57.939,9.763,-12.244
-0.023,0.956,0.650,-27.779,0.817,-9.183
-0.001,0.943,0.521,-8.450,-3.802,-7.481
0.009,0.925,0.433,1.374,-1.298,-7.962
0.010,0.919,0.354,3.015,0.206,-9.374
-0.001,0.911,0.306,1.527,0.046,-10.519
-0.025,0.906,0.279,-2.855,2.176,-11.626
-0.053,0.916,0.284,-8.618,3.435,-11.580
-0.068,0.917,0.301,-12.053,5.282,-7.947
-0.067,0.922,0.344,-11.412,5.885,-4.779
-0.055,0.924,0.350,-8.809,4.183,-1.092
-0.025,0.908,0.336,-6.557,4.840,1.145
-0.008,0.902,0.340,-6.252,4.565,0.664
-0.009,0.906,0.353,-5.969,5.634,-0.168
-0.006,0.906,0.373,-5.046,4.519,-0.962
-0.005,0.903,0.355,-2.397,4.695,-0.931
0.005,0.908,0.341,-1.763,5.473,-1.481

0.006,1.052,0.803,22.328,11.939,8.420
-0.114,1.104,1.099,55.267,-5.481,11.611
-0.163,1.097,1.367,117.641,-14.298,27.695
-0.395,1.029,1.684,202.809,-20.550,56.824
-0.487,0.789,1.883,250.130,-21.992,105.450
-0.536,0.258,1.713,250.130,-48.031,147.878
-0.209,0.104,0.882,250.130,-79.634,172.466
0.045,-0.157,0.155,250.130,-94.626,182.153
0.377,-0.385,-0.521,250.130,-88.534,158.824
0.696,-0.346,-1.826,250.130,-80.626,65.702
0.596,0.038,-2.000,250.130,-169.420,34.252
0.533,-0.001,-2.000,91.740,-58.641,-28.267
0.198,0.143,-1.993,-56.260,6.878,-59.229
-0.114,0.248,-1.268,-123.992,-5.542,-52.405
-0.103,0.460,-0.990,-144.168,1.733,-37.947
-0.173,0.584,-0.969,-163.939,0.924,-20.122
-0.083,0.643,-0.997,-188.885,7.962,-6.672
-0.003,0.678,-0.987,-220.389,28.870,2.679
0.078,0.707,-0.859,-250.137,49.756,10.130
0.185,0.696,-0.663,-250.137,70.313,10.351
0.244,0.712,-0.471,-250.137,79.473,1.763
0.253,0.698,-0.266,-250.137,79.573,-11.718
0.244,0.725,-0.099,-250.137,88.099,-30.214
0.170,0.734,0.060,-250.137,82.969,-44.748
0.156,0.778,0.241,-250.137,80.656,-61.137
0.051,0.829,0.415,-250.137,67.618,-71.611
-0.047,0.894,0.578,-250.137,45.908,-70.366
-0.069,0.923,0.716,-213.496,41.206,-62.183
-0.084,0.949,0.754,-165.168,28.908,-48.870
-0.024,0.976,0.722,-119.519,18.405,-36.679
-0.031,0.989,0.639,-84.336,13.756,-28.580
-0.040,0.994,0.584,-61.496,12.733,-18.840
-0.019,0.971,0.566,-41.603,8.672,-9.664
0.031,0.936,0.497,-24.664,1.527,-4.382
0.062,0.931,0.439,-12.725,0.107,-3.634
0.071,0.914,0.400,-7.160,0.130,-3.756
0.081,0.913,0.362,-5.198,-0.664,-5.069
0.072,0.911,0.329,-7.588,1.412,-7.466
0.045,0.911,0.345,-10.046,2.779,-7.672
0.042,0.905,0.378,-8.267,3.305,-7.389
0.034,0.900,0.378,-5.733,1.779,-9.122
0.017,0.911,0.353,-3.771,2.305,-8.603
0.008,0.913,0.328,-4.084,1.244,-7.702
0.013,0.909,0.331,-4.397,0.427,-6.695
-0.002,0.907,0.321,-4.038,1.443,-6.748
-0.021,0.903,0.329,-3.511,4.008,-5.878
-0.027,0.916,0.330,-2.931,4.855,-4.626
-0.037,0.914,0.350,-2.588,4.298,-1.969
-0.018,0.913,0.350,-1.412,2.420,1.527
0.017,0.896,0.338,-0.603,2.382,2.069

0.046,0.994,0.788,40.160,4.374,8.588
-0.027,0.955,0.944,74.397,-6.786,8.916
0.136,1.063,1.110,117.611,-6.710,16.122
-0.060,0.908,1.317,179.992,-5.344,18.252
-0.174,0.861,1.383,250.130,-37.397,29.107
-0.260,0.638,1.302,250.130,-86.840,57.878
-0.180,0.472,0.892,250.130,-131.603,72.550
-0.133,0.254,0.425,250.130,-154.603,80.733
0.074,0.083,-0.106,250.130,-152.565,70.679
0.189,-0.036,-0.719,250.130,-134.924,45.038
0.228,0.001,-1.364,250.130,-130.679,9.053
0.208,0.113,-2.000,250.130,-101.145,-21.695
0.089,0.298,-2.000,154.122,-88.359,-29.893
-0.071,0.287,-1.984,7.763,-24.168,-26.954
-0.153,0.330,-1.382,-73.046,-11.069,-25.557
-0.177,0.440,-1.093,-105.702,-4.366,-18.351
-0.128,0.580,-1.013,-134.595,2.977,-15.069
-0.119,0.622,-0.977,-155.840,20.038,-13.305
-0.094,0.652,-1.025,-185.191,38.344,-12.107
-0.107,0.724,-1.015,-233.099,55.489,-4.229
-0.064,0.736,-0.835,-250.137,71.595,2.244
-0.018,0.753,-0.572,-250.137,85.725,2.420
0.003,0.749,-0.371,-250.137,98.786,-2.565
-0.000,0.747,-0.180,-250.137,103.305,-8.412
-0.003,0.761,0.038,-250.137,96.786,-16.107
0.012,0.778,0.261,-250.137,88.214,-26.618
0.018,0.826,0.463,-250.137,75.000,-33.756
-0.014,0.853,0.661,-250.137,61.153,-35.389
-0.051,0.923,0.771,-195.687,46.267,-29.748
-0.092,0.958,0.778,-136.901,31.969,-20.580
-0.088,1.009,0.707,-86.718,16.427,-8.450
-0.052,1.006,0.591,-52.405,10.092,5.046
0.001,0.997,0.480,-34.153,7.656,12.015
0.053,0.963,0.427,-23.618,7.939,14.779
0.115,0.949,0.394,-17.076,6.290,11.473
0.121,0.933,0.363,-9.565,2.740,4.351
0.086,0.928,0.340,-2.405,-0.550,1.504
0.077,0.930,0.289,0.649,0.344,-0.519
0.065,0.917,0.240,-1.947,2.214,-2.214
0.055,0.925,0.221,-7.519,4.969,-4.618
0.032,0.924,0.219,-14.237,6.191,-6.611
0.010,0.933,0.245,-18.534,7.977,-6.695
0.007,0.932,0.285,-20.573,9.198,-6.435
-0.009,0.932,0.304,-20.252,10.069,-6.847
-0.032,0.933,0.322,-17.611,8.099,-5.481
-0.033,0.934,0.333,-13.099,7.511,-1.969
-0.033,0.930,0.346,-8.893,5.740,0.183
-0.030,0.932,0.335,-5.855,4.214,1.450
-0.011,0.937,0.334,-3.504,3.336,3.153
0.014,0.928,0.334,-2.504,2.969,3.153

0.065,1.040,0.733,28.038,10.626,11.305
0.055,1.030,1.061,64.160,-2.260,10.527
0.178,1.141,1.232,107.031,-1.473,18.817
0.062,0.932,1.492,171.092,-9.863,9.214
-0.068,0.898,1.715,250.130,-29.756,7.298
-0.386,0.701,1.751,250.130,-76.061,27.832
-0.459,0.371,1.291,250.130,-128.580,60.252
-0.317,0.063,0.552,250.130,-161.252,74.321
-0.075,-0.108,-0.362,250.130,-181.458,60.160
0.061,-0.094,-1.296,250.130,-161.977,33.611
0.032,-0.023,-2.000,250.130,-123.794,16.237
0.033,0.100,-2.000,250.130,-87.641,8.053
0.058,0.257,-2.000,96.374,-78.664,10.038
0.106,0.159,-2.000,-26.534,-4.679,-8.405
-0.046,0.245,-1.458,-106.282,20.313,-25.840
-0.165,0.398,-1.205,-149.298,24.740,-22.542
-0.129,0.438,-1.085,-187.565,25.305,-18.420
-0.170,0.552,-0.975,-210.366,41.511,-18.542
-0.216,0.637,-0.875,-231.450,51.924,-10.443
-0.199,0.727,-0.796,-250.137,64.649,2.366
-0.116,0.747,-0.659,-250.137,77.458,13.107
-0.049,0.771,-0.495,-250.137,91.153,16.450
-0.031,0.735,-0.395,-250.137,97.214,18.740
0.040,0.686,-0.235,-250.137,96.817,19.420
0.110,0.697,-0.049,-250.137,100.145,12.832
0.133,0.684,0.169,-250.137,103.015,-0.008
0.199,0.760,0.378,-250.137,103.611,-17.939
0.131,0.821,0.630,-250.137,92.244,-37.031
0.020,0.864,0.805,-248.695,72.595,-44.198
-0.037,0.912,0.925,-192.924,53.916,-41.076
-0.064,0.973,0.928,-131.962,32.832,-31.977
-0.112,0.999,0.871,-83.031,16.344,-18.305
-0.090,1.000,0.730,-47.870,5.893,-3.794
-0.033,0.985,0.585,-26.435,1.160,6.931
0.043,0.951,0.498,-15.550,0.366,10.985
0.087,0.926,0.448,-9.603,0.908,8.489
0.093,0.909,0.429,-4.496,0.649,4.885
0.108,0.900,0.390,0.641,2.008,2.176
0.107,0.891,0.349,3.443,1.863,-3.015
0.086,0.910,0.298,1.611,0.084,-8.725
0.057,0.915,0.278,-3.557,3.198,-9.397
0.026,0.912,0.284,-8.305,6.336,-10.000
0.002,0.913,0.332,-10.168,5.115,-9.397
-0.011,0.923,0.345,-8.359,3.794,-7.840
-0.024,0.924,0.346,-6.817,3.183,-4.626
-0.018,0.919,0.343,-5.237,2.122,-2.229
-0.002,0.915,0.344,-4.397,1.443,-1.641
0.000,0.908,0.337,-3.214,1.191,-2.435
0.001,0.915,0.331,-2.084,2.099,-2.611
-0.001,0.915,0.337,-1.412,2.496,-2.656

0.058,0.971,0.789,49.115,-2.580,13.053
0.145,1.006,0.908,79.626,-2.611,7.328
0.116,0.985,1.064,114.290,-6.153,1.000
-0.043,0.909,1.065,168.153,-47.481,-0.473
0.002,0.902,1.090,236.962,-73.519,10.725
-0.137,0.697,0.853,250.130,-84.656,16.130
-0.170,0.745,0.586,250.130,-94.008,28.099
-0.145,0.664,0.402,250.130,-107.305,46.672
-0.058,0.538,0.143,250.130,-125.771,54.939
-0.044,0.405,-0.136,250.130,-157.580,46.336
-0.058,0.236,-0.564,250.130,-184.267,35.710
-0.076,0.182,-1.070,250.130,-189.382,21.382
-0.108,0.140,-1.451,250.130,-157.397,9.962
-0.034,0.261,-2.000,250.130,-108.160,-3.031
-0.054,0.266,-2.000,132.221,-54.397,-12.634
-0.075,0.301,-2.000,-15.237,-16.061,-16.344
-0.148,0.355,-1.730,-121.115,42.160,-25.298
-0.195,0.408,-1.234,-176.191,69.092,-29.031
-0.238,0.440,-1.069,-214.740,73.450,-22.015
-0.225,0.503,-1.003,-247.947,91.168,-12.176
-0.197,0.595,-0.939,-250.137,99.832,0.641
-0.146,0.620,-0.779,-250.137,111.115,12.122
-0.101,0.645,-0.572,-250.137,130.267,16.893
-0.104,0.633,-0.380,-250.137,149.206,16.473
-0.092,0.610,-0.072,-250.137,154.000,17.290
-0.051,0.593,0.331,-250.137,141.954,16.084
0.031,0.633,0.666,-250.137,123.000,9.244
0.103,0.735,0.999,-250.137,98.107,0.542
0.106,0.812,1.198,-250.137,65.595,-5.221
0.139,0.885,1.326,-159.878,39.710,-2.947
0.141,0.923,1.229,-74.198,19.160,-5.878
0.118,0.964,0.988,-17.649,7.809,-9.237
0.097,0.973,0.761,8.611,4.863,-7.443
0.085,0.950,0.616,19.489,3.023,-7.588
0.060,0.930,0.503,26.023,0.580,-5.359
0.062,0.919,0.423,32.115,-2.504,-1.595
0.087,0.912,0.342,34.237,-3.328,1.878
0.119,0.895,0.260,29.603,-4.794,1.878
0.161,0.885,0.199,19.756,-2.053,-2.511
0.144,0.881,0.170,10.473,2.534,-8.229
0.125,0.876,0.164,0.916,8.466,-13.534
0.062,0.889,0.180,-10.351,10.443,-16.748
0.012,0.916,0.237,-17.863,12.000,-15.840
-0.024,0.924,0.319,-21.336,11.122,-10.969
-0.026,0.927,0.375,-18.359,6.053,-5.611
-0.002,0.930,0.397,-10.832,3.718,-1.359
0.030,0.912,0.398,-3.962,3.901,-0.214
0.042,0.912,0.363,-2.267,3.466,-3.076
0.027,0.917,0.367,-1.542,4.718,-3.687
0.021,0.917,0.365,-0.351,3.473,-3.099

0.104,1.024,0.759,21.244,24.588,13.305
0.180,1.144,1.336,59.779,35.947,6.000
0.066,1.155,1.595,133.328,16.718,22.412
-0.127,0.745,1.823,250.130,-11.359,33.450
-0.323,0.459,1.714,250.130,-51.435,45.985
-0.461,0.301,1.125,250.130,-112.336,60.153
-0.379,0.117,0.436,250.130,-147.397,77.634
-0.218,0.013,-0.314,250.130,-173.672,82.824
0.050,0.016,-1.230,250.130,-162.366,70.374
0.086,0.087,-1.887,250.130,-148.267,57.351
0.056,0.338,-2.000,221.550,-139.725,52.672
0.348,0.106,-2.000,55.275,-51.748,26.015
0.284,0.194,-1.832,-54.580,7.313,-14.901
0.055,0.309,-1.295,-114.290,32.695,-38.511
-0.073,0.447,-1.056,-147.687,37.695,-34.992
-0.095,0.534,-0.912,-171.489,39.435,-31.748
-0.141,0.614,-0.843,-186.603,41.397,-20.893
-0.071,0.673,-0.843,-206.191,55.183,-11.847
-0.044,0.735,-0.756,-235.656,71.809,-7.237
-0.049,0.807,-0.608,-250.137,79.969,4.069
0.021,0.795,-0.447,-250.137,90.847,11.107
0.055,0.790,-0.296,-250.137,104.473,13.015
0.095,0.757,-0.098,-250.137,104.031,10.641
0.135,0.772,0.129,-250.137,102.282,1.542
0.154,0.784,0.338,-250.137,96.260,-13.031
0.154,0.837,0.519,-250.137,84.718,-29.031
0.097,0.868,0.723,-241.496,66.496,-36.527
0.050,0.917,0.822,-189.664,51.634,-38.397
-0.012,0.945,0.842,-136.985,32.481,-32.542
-0.009,0.983,0.811,-84.847,24.115,-23.229
-0.012,0.996,0.692,-47.031,14.786,-13.389
0.036,0.973,0.553,-24.328,8.031,-4.672
0.101,0.935,0.448,-12.809,6.573,-3.458
0.128,0.909,0.393,-7.618,6.489,-7.023
0.125,0.904,0.364,-4.145,2.985,-12.092
0.105,0.909,0.326,-2.809,3.977,-14.733
0.075,0.913,0.305,-4.847,5.939,-16.992
0.023,0.935,0.316,-8.595,3.450,-16.122
-0.002,0.933,0.317,-8.893,4.221,-10.427
0.006,0.918,0.333,-8.260,4.275,-7.252
0.020,0.917,0.348,-7.489,2.397,-6.634
0.030,0.906,0.344,-6.160,1.466,-6.321
0.041,0.912,0.322,-6.573,2.534,-8.321
0.015,0.906,0.328,-7.229,4.397,-10.336
-0.019,0.928,0.358,-6.206,5.145,-9.595
-0.045,0.925,0.354,-3.336,5.374,-6.321
-0.056,0.917,0.362,0.069,1.496,-1.069
-0.015,0.917,0.338,2.748,1.214,2.550
0.009,0.911,0.325,1.573,1.756,2.099
0.029,0.912,0.314,-0.947,3.237,0.298

0.054,0.995,0.780,23.908,23.206,7.870
0.073,1.074,1.021,50.405,23.542,6.191
-0.022,1.178,1.266,88.115,20.924,15.740
-0.329,1.093,1.562,159.481,27.069,33.695
-0.682,0.851,1.765,250.130,4.817,98.542
-0.528,0.408,1.441,250.130,-26.053,168.489
-0.213,0.124,0.729,250.130,-85.145,193.198
0.122,-0.204,0.027,250.130,-149.473,184.687
0.468,-0.344,-0.770,250.130,-191.496,136.534
0.626,-0.215,-1.649,250.130,-184.679,61.389
0.300,0.212,-2.000,250.130,-226.947,18.046
0.437,0.049,-2.000,143.382,-147.847,-7.084
0.262,0.218,-2.000,-11.298,-22.779,-55.725
0.000,0.236,-1.561,-110.489,45.641,-67.618
-0.168,0.475,-1.141,-161.542,41.939,-56.076
-0.245,0.607,-0.838,-187.450,20.053,-22.992
-0.151,0.668,-0.755,-190.542,29.725,0.389
-0.046,0.689,-0.727,-197.046,41.275,15.565
0.048,0.735,-0.700,-213.695,53.061,24.099
0.154,0.710,-0.620,-232.443,66.092,25.183
0.227,0.683,-0.537,-250.137,69.763,19.550
0.309,0.692,-0.462,-250.137,77.908,6.779
0.330,0.730,-0.377,-250.137,94.290,-13.710
0.258,0.771,-0.103,-250.137,110.015,-35.962
0.174,0.778,0.122,-250.137,116.191,-54.366
0.102,0.793,0.416,-250.137,101.046,-65.305
0.005,0.854,0.700,-250.137,72.534,-67.977
-0.045,0.888,0.916,-250.137,51.061,-58.382
-0.063,0.938,1.031,-189.183,38.824,-45.641
-0.081,0.958,1.066,-119.504,20.763,-32.153
-0.047,0.980,0.971,-57.084,3.901,-18.450
0.004,0.981,0.801,-15.115,-3.534,-7.305
0.075,0.937,0.617,9.817,-6.687,-2.160
0.141,0.908,0.439,16.794,-4.229,-6.443
0.123,0.902,0.348,13.611,-1.427,-14.008
0.065,0.915,0.334,10.466,-0.527,-14.794
0.030,0.918,0.331,10.908,-0.206,-10.122
0.033,0.909,0.327,11.397,-2.328,-5.389
0.064,0.899,0.291,8.977,-3.466,-4.557
0.082,0.899,0.256,2.405,-2.832,-7.672
0.050,0.907,0.252,-3.580,3.824,-9.840
0.027,0.914,0.263,-12.511,7.527,-9.908
0.009,0.923,0.323,-17.588,8.435,-8.351
0.007,0.914,0.366,-16.443,6.649,-5.969
0.014,0.911,0.382,-10.435,2.573,-4.611
0.015,0.910,0.384,-4.885,3.000,-2.557
0.016,0.922,0.361,-2.084,2.786,-2.153
0.006,0.914,0.381,0.176,2.008,0.504
0.034,0.907,0.353,2.817,3.229,2.008
0.055,0.905,0.338,1.496,5.198,1.214

0.090,1.020,0.703,17.672,12.427,8.191
0.104,1.034,1.014,50.466,14.221,10.542
0.078,1.069,1.202,104.382,7.489,13.817
-0.183,1.031,1.306,158.649,-17.122,36.160
-0.184,1.120,1.550,226.672,-25.924,61.168
-0.448,0.677,1.699,250.130,-58.611,99.290
-0.262,0.297,1.481,250.130,-88.198,131.908
-0.072,0.018,0.780,250.130,-127.511,132.305
0.085,-0.166,-0.088,250.130,-176.191,111.412
0.296,-0.212,-0.974,250.130,-186.557,63.366
0.354,-0.027,-1.969,250.130,-154.489,14.931
0.084,0.266,-2.000,237.832,-188.924,3.542
0.212,0.099,-2.000,58.031,-69.863,-12.771
0.107,0.230,-2.000,-78.611,11.847,-32.901
-0.058,0.297,-1.298,-153.908,40.786,-40.244
-0.163,0.450,-0.904,-182.351,33.183,-26.527
-0.129,0.549,-0.796,-193.840,25.298,-15.053
-0.093,0.673,-0.777,-200.542,47.389,-9.855
-0.088,0.785,-0.714,-224.557,61.908,-4.282
-0.052,0.830,-0.576,-247.069,74.389,3.542
-0.007,0.812,-0.438,-250.137,81.664,11.137
0.091,0.831,-0.370,-250.137,93.855,15.885
0.153,0.794,-0.301,-250.137,103.824,15.611
0.235,0.775,-0.157,-250.137,116.794,8.328
0.235,0.789,0.080,-250.137,108.084,-11.450
0.250,0.789,0.350,-250.137,103.985,-29.931
0.184,0.852,0.601,-250.137,83.099,-40.969
0.127,0.876,0.841,-244.786,66.328,-46.282
0.075,0.872,0.928,-185.763,47.779,-41.076
0.084,0.930,0.948,-117.275,35.328,-34.748
0.067,0.944,0.837,-60.733,14.634,-28.962
0.053,0.966,0.674,-26.298,5.702,-22.656
0.058,0.964,0.535,-10.084,-1.328,-16.817
0.048,0.948,0.459,-0.840,-2.344,-11.260
0.062,0.922,0.415,6.931,-4.351,-5.481
0.100,0.915,0.362,12.076,-4.076,-2.916
0.119,0.898,0.310,14.351,-5.229,-4.290
0.128,0.896,0.264,11.443,-3.359,-8.137
0.105,0.905,0.228,2.565,-0.450,-12.344
0.069,0.914,0.236,-5.802,2.191,-13.557
0.050,0.914,0.266,-10.649,6.359,-13.031
0.015,0.915,0.297,-13.374,2.176,-11.374
0.022,0.916,0.320,-13.206,3.053,-8.595
0.011,0.924,0.341,-13.832,4.061,-7.069
-0.002,0.930,0.374,-12.672,3.534,-4.893
0.000,0.930,0.392,-7.656,2.977,-1.840
0.023,0.925,0.374,-2.023,4.489,1.634
0.044,0.913,0.355,1.412,4.115,2.985
0.069,0.906,0.329,2.611,2.969,2.405
0.092,0.895,0.314,1.290,4.092,0.634

0.120,1.021,0.712,17.710,16.916,13.916
0.186,1.056,1.107,51.718,24.580,10.122
0.097,0.969,1.362,111.267,1.481,9.290
0.200,1.008,1.617,194.725,4.206,9.977
-0.185,0.684,1.733,250.130,-49.992,26.053
-0.313,0.392,1.507,250.130,-106.550,49.313
-0.288,0.198,0.828,250.130,-148.802,62.115
-0.219,-0.044,0.096,250.130,-187.824,62.809
-0.107,-0.159,-0.752,250.130,-232.298,45.939
0.007,-0.047,-1.717,250.130,-212.321,22.092
-0.169,0.320,-2.000,250.130,-234.634,43.183
0.017,0.111,-2.000,139.664,-114.099,33.908
0.057,0.164,-2.000,-17.710,-22.237,11.687
0.044,0.246,-1.494,-110.710,25.687,-15.931
-0.074,0.288,-1.042,-142.313,38.374,-29.695
-0.095,0.528,-0.790,-151.595,43.573,-39.130
-0.176,0.631,-0.709,-149.679,41.069,-36.786
-0.244,0.730,-0.729,-149.618,42.962,-24.015
-0.192,0.789,-0.742,-157.878,53.595,-9.458
-0.164,0.831,-0.749,-174.542,70.275,3.664
-0.089,0.825,-0.753,-205.817,84.847,15.679
-0.028,0.806,-0.701,-248.313,93.985,26.076
0.053,0.747,-0.621,-250.137,99.962,28.229
0.126,0.732,-0.451,-250.137,112.519,18.397
0.124,0.739,-0.254,-250.137,119.618,6.122
0.128,0.753,0.014,-250.137,130.153,-5.374
0.124,0.760,0.294,-250.137,120.824,-18.260
0.039,0.795,0.579,-250.137,92.771,-21.649
0.042,0.834,0.830,-248.130,74.198,-15.374
0.082,0.869,0.885,-177.374,55.023,-10.511
0.103,0.910,0.839,-117.603,34.992,-9.214
0.100,0.951,0.732,-79.603,19.840,-9.939
0.109,0.964,0.629,-58.710,14.489,-9.046
0.094,0.959,0.592,-44.061,14.031,-7.992
0.102,0.940,0.567,-28.740,14.351,-6.229
0.102,0.921,0.530,-13.191,11.710,-4.725
0.095,0.902,0.493,-0.702,4.489,-5.527
0.104,0.897,0.449,8.015,-1.504,-5.695
0.110,0.910,0.373,12.809,-6.603,-7.473
0.098,0.904,0.332,13.321,-6.901,-8.626
0.090,0.899,0.276,7.618,-3.733,-10.809
0.055,0.893,0.263,2.473,1.534,-11.725
0.034,0.900,0.267,-3.817,3.237,-11.718
0.009,0.907,0.296,-9.267,2.924,-11.252
-0.007,0.909,0.317,-11.122,4.588,-7.763
0.006,0.911,0.355,-9.351,4.878,-5.496
0.001,0.911,0.362,-6.924,3.038,-3.458
0.018,0.901,0.362,-3.779,2.863,-1.664
0.021,0.898,0.365,-2.397,2.992,-1.924
0.031,0.907,0.356,-1.954,3.947,-2.847

0.088,1.021,0.745,30.931,7.061,15.550
0.165,1.031,1.022,66.710,17.832,13.847
-0.008,1.004,1.199,111.626,8.389,19.344
0.035,1.144,1.584,175.863,-2.313,26.885
-0.331,0.758,1.732,250.130,-42.573,63.084
-0.296,0.423,1.602,250.130,-98.885,96.038
-0.218,0.108,0.989,250.130,-142.031,103.389
-0.064,-0.131,0.231,250.130,-163.550,95.870
0.014,-0.337,-0.416,250.130,-210.267,72.931
0.103,-0.346,-1.207,250.130,-237.977,33.313
-0.023,0.220,-2.000,250.130,-250.137,39.183
0.089,0.029,-2.000,236.664,-171.351,23.618
0.003,0.089,-2.000,56.954,-73.504,10.038
-0.069,0.183,-1.940,-82.473,2.519,-11.198
-0.178,0.229,-1.310,-149.679,27.870,-13.656
-0.123,0.385,-0.950,-167.359,39.389,-19.832
-0.165,0.554,-0.762,-170.443,42.290,-19.634
-0.178,0.660,-0.725,-165.359,57.099,-12.168
-0.136,0.782,-0.746,-175.107,71.870,-2.603
-0.109,0.826,-0.704,-195.771,79.198,6.374
-0.054,0.863,-0.678,-224.672,79.321,14.053
-0.002,0.857,-0.610,-250.137,90.817,19.817
0.067,0.818,-0.548,-250.137,106.397,24.756
0.130,0.770,-0.422,-250.137,123.053,23.656
0.189,0.748,-0.271,-250.137,131.214,13.519
0.221,0.699,-0.007,-250.137,127.160,-1.542
0.237,0.687,0.229,-250.137,121.420,-19.550
0.209,0.741,0.393,-250.137,105.916,-34.672
0.120,0.825,0.590,-250.137,85.397,-41.618
0.044,0.847,0.760,-227.107,71.718,-38.046
0.047,0.924,0.832,-171.366,46.061,-29.389
0.027,0.922,0.857,-115.519,32.588,-18.794
0.071,0.944,0.783,-66.321,18.473,-9.229
0.112,0.948,0.652,-39.542,10.740,-4.779
0.120,0.941,0.588,-24.206,6.198,-3.924
0.139,0.929,0.542,-11.244,2.366,-2.809
0.150,0.908,0.508,-0.740,1.298,-3.443
0.159,0.888,0.453,8.656,0.015,-6.244
0.157,0.889,0.405,13.397,-2.756,-10.687
0.129,0.899,0.318,9.779,-3.221,-14.099
0.111,0.904,0.296,2.046,-0.817,-16.397
0.068,0.891,0.293,-5.145,2.336,-17.611
0.025,0.900,0.320,-9.229,2.603,-17.160
-0.002,0.912,0.339,-9.611,3.504,-14.122
-0.017,0.916,0.340,-9.962,4.168,-11.069
-0.016,0.911,0.353,-9.695,4.863,-6.840
-0.004,0.917,0.362,-8.481,4.313,-3.550
0.017,0.898,0.388,-5.931,2.550,-1.092
0.038,0.886,0.377,-2.397,2.840,-0.641
0.050,0.901,0.365,-0.641,4.863,-0.748

0.119,0.983,0.708,38.985,4.527,15.489
0.159,0.999,0.947,75.725,6.855,15.053
0.085,0.963,1.059,123.130,-8.931,22.084
0.235,0.968,1.235,183.275,14.153,17.580
-0.125,0.892,1.437,250.130,-19.847,23.840
-0.228,0.748,1.612,250.130,-49.214,51.015
-0.380,0.318,1.367,250.130,-94.137,91.298
-0.289,0.067,0.730,250.130,-146.115,109.595
-0.158,-0.281,-0.042,250.130,-224.832,108.771
0.094,-0.473,-0.909,250.130,-250.137,65.099
-0.315,0.257,-2.000,250.130,-250.137,39.916
0.090,-0.186,-2.000,250.130,-250.137,23.336
0.004,-0.013,-2.000,116.229,-126.466,0.366
-0.080,0.080,-2.000,-62.710,-9.076,-22.901
-0.176,0.164,-1.696,-178.519,65.626,-31.870
-0.299,0.235,-1.122,-235.290,74.954,-30.160
-0.285,0.369,-0.856,-250.137,76.313,-29.366
-0.211,0.578,-0.681,-250.137,75.969,-32.817
-0.254,0.722,-0.523,-250.137,70.397,-23.740
-0.190,0.823,-0.554,-250.137,76.672,-0.504
-0.168,0.854,-0.405,-250.137,93.000,24.924
-0.044,0.842,-0.410,-250.137,108.542,42.992
0.101,0.814,-0.364,-250.137,127.153,43.824
0.162,0.772,-0.212,-250.137,134.183,32.992
0.201,0.780,0.041,-250.137,141.740,13.321
0.111,0.745,0.358,-250.137,126.313,-4.519
0.112,0.764,0.622,-250.137,97.267,-7.733
0.152,0.748,0.890,-250.137,85.664,-5.870
0.201,0.784,0.978,-212.687,61.084,-9.305
0.225,0.821,0.956,-132.092,41.015,-17.069
0.189,0.899,0.812,-80.084,22.634,-25.511
0.111,0.924,0.644,-50.954,12.748,-26.954
0.080,0.947,0.539,-38.534,10.489,-22.359
0.050,0.927,0.499,-29.664,8.695,-14.725
0.076,0.906,0.487,-18.885,5.038,-8.176
0.102,0.899,0.471,-7.099,0.740,-4.611
0.127,0.873,0.438,0.992,1.435,-3.069
0.151,0.880,0.399,0.863,1.443,-8.160
0.121,0.888,0.362,-4.771,1.725,-13.702
0.084,0.897,0.357,-9.824,5.473,-16.321
0.049,0.893,0.388,-11.069,7.443,-16.000
0.037,0.882,0.393,-11.389,7.176,-14.985
0.017,0.890,0.407,-10.084,6.115,-14.443
-0.002,0.897,0.388,-10.748,3.809,-11.733
-0.012,0.897,0.385,-12.038,4.687,-9.244
-0.009,0.886,0.410,-11.870,5.954,-6.992
-0.029,0.890,0.440,-8.221,4.282,-3.992
-0.007,0.884,0.442,-1.870,2.389,-0.069
0.016,0.878,0.409,2.504,1.817,1.359
0.034,0.877,0.387,2.305,1.359,1.137

0.030,1.021,0.798,4.771,24.916,14.344
-0.001,1.118,1.238,38.000,40.351,15.847
-0.210,1.193,1.679,95.542,57.366,36.160
-0.630,0.935,2.000,199.511,12.229,95.969
-0.620,0.650,2.000,250.130,-50.878,162.130
-0.531,-0.049,1.974,250.130,-148.748,214.031
-0.040,-0.546,0.986,250.130,-201.786,223.611
0.269,-0.951,-0.104,250.130,-213.947,183.901
0.372,-0.854,-1.195,250.130,-250.137,122.573
0.494,-0.548,-2.000,250.130,-209.931,40.809
0.210,-0.204,-2.000,250.130,-250.137,37.023
-0.145,-0.251,-2.000,143.038,-120.450,40.878
0.173,0.108,-2.000,-52.389,8.847,8.153
0.183,0.148,-1.767,-182.840,91.885,-32.817
-0.004,0.235,-1.131,-244.893,125.206,-47.947
0.030,0.441,-0.831,-250.137,125.733,-51.916
0.096,0.550,-0.586,-250.137,98.092,-60.992
0.069,0.734,-0.491,-250.137,97.061,-54.756
0.124,0.805,-0.373,-250.137,89.214,-40.794
0.165,0.822,-0.277,-250.137,89.763,-25.038
0.236,0.838,-0.268,-250.137,109.878,-18.870
0.274,0.858,-0.279,-250.137,124.496,-23.092
0.233,0.806,-0.052,-250.137,120.824,-27.702
0.301,0.776,0.139,-250.137,109.527,-36.122
0.305,0.808,0.265,-250.137,104.305,-46.260
0.262,0.825,0.399,-230.679,99.847,-57.916
0.190,0.874,0.493,-202.802,84.145,-68.405
0.099,0.927,0.563,-173.534,68.664,-73.344
-0.010,0.966,0.583,-141.893,52.939,-69.405
-0.094,1.002,0.591,-111.931,33.832,-56.092
-0.096,1.013,0.589,-84.206,18.656,-36.870
-0.079,0.988,0.547,-59.580,10.427,-18.359
0.032,0.990,0.493,-41.145,1.962,-9.359
0.055,0.941,0.452,-24.420,6.237,-2.237
0.101,0.935,0.390,-17.641,0.679,-2.489
0.103,0.932,0.362,-14.794,-0.069,-5.229
0.108,0.919,0.342,-14.122,-1.763,-5.580
0.117,0.909,0.335,-13.595,-0.267,-7.687
0.111,0.904,0.321,-13.038,2.053,-11.824
0.075,0.917,0.318,-14.504,2.924,-13.855
0.058,0.919,0.314,-16.511,4.183,-13.107
0.066,0.922,0.312,-20.137,2.137,-13.939
0.045,0.923,0.327,-18.763,5.298,-12.038
0.037,0.917,0.335,-18.336,7.382,-9.061
0.039,0.902,0.350,-17.313,6.137,-7.275
0.059,0.917,0.348,-16.504,3.863,-8.145
0.029,0.912,0.364,-14.473,7.328,-6.626
0.029,0.916,0.380,-13.107,2.603,-4.107
0.049,0.917,0.388,-10.947,-0.427,-3.565
0.057,0.900,0.383,-7.382,0.931,-1.802

0.025,0.992,0.817,27.931,-5.511,10.710
0.116,1.047,1.021,73.977,9.931,16.710
0.065,1.001,1.230,126.076,9.756,18.802
0.021,0.943,1.441,194.275,-14.145,24.634
-0.150,0.813,1.616,250.130,-41.756,38.427
-0.338,0.526,1.592,250.130,-82.573,66.053
-0.364,0.254,1.266,250.130,-126.092,92.947
-0.219,-0.017,0.752,250.130,-178.221,104.427
-0.148,-0.441,-0.158,250.130,-243.328,103.992
0.011,-0.498,-1.167,250.130,-250.137,69.168
-0.356,-0.108,-2.000,250.130,-250.137,47.076
-0.227,-0.370,-2.000,250.130,-250.137,44.565
0.006,-0.073,-2.000,162.359,-165.183,25.160
-0.093,0.031,-2.000,-14.405,-29.916,0.267
-0.225,0.052,-1.743,-136.046,43.061,-15.519
-0.271,0.160,-1.199,-184.702,64.939,-15.504
-0.251,0.341,-0.978,-206.122,58.901,-12.573
-0.295,0.449,-0.885,-217.748,52.298,-0.252
-0.164,0.490,-0.854,-219.198,71.008,13.611
-0.051,0.547,-0.975,-229.412,111.153,17.282
-0.011,0.597,-0.962,-250.137,125.450,13.000
0.039,0.656,-0.867,-250.137,146.885,8.626
0.021,0.652,-0.703,-250.137,142.221,6.985
0.092,0.611,-0.484,-250.137,156.557,3.160
0.144,0.594,-0.254,-250.137,179.573,-15.725
0.131,0.610,-0.092,-250.137,187.817,-37.710
0.052,0.607,0.152,-250.137,180.397,-52.924
-0.019,0.668,0.480,-250.137,153.443,-61.366
-0.063,0.665,0.683,-250.137,118.901,-57.710
-0.028,0.740,0.929,-250.137,87.107,-50.924
-0.012,0.790,1.076,-244.641,73.267,-49.053
-0.063,0.873,1.126,-179.969,55.443,-44.786
-0.102,0.904,1.152,-117.084,30.611,-32.237
-0.098,0.917,1.112,-55.672,8.328,-17.420
-0.052,0.904,0.963,-6.901,-9.832,-5.718
0.002,0.876,0.825,21.374,-17.206,1.344
0.051,0.856,0.669,36.733,-23.573,0.130
0.089,0.839,0.539,43.756,-24.779,-4.450
0.093,0.854,0.445,44.863,-21.931,-9.618
0.077,0.855,0.369,42.000,-15.176,-13.344
0.052,0.850,0.297,34.656,-8.603,-16.504
0.027,0.872,0.252,20.115,-5.519,-19.191
-0.012,0.873,0.248,8.870,0.038,-19.115
-0.049,0.884,0.253,-2.137,3.305,-17.038
-0.076,0.885,0.300,-12.473,5.351,-13.588
-0.085,0.886,0.355,-17.878,6.832,-8.840
-0.069,0.881,0.408,-19.504,5.824,-4.687
-0.046,0.890,0.433,-17.313,6.336,-2.725
-0.036,0.875,0.454,-12.634,6.908,0.244
-0.024,0.861,0.470,-6.916,7.397,1.099

0.023,1.009,0.834,5.313,45.351,6.977
-0.005,1.155,1.323,42.443,50.550,4.084
-0.153,1.155,1.669,108.634,74.924,31.710
-0.345,0.869,2.000,214.450,79.008,64.618
-0.569,0.406,2.000,250.130,-4.053,115.779
-0.535,-0.001,2.000,250.130,-124.443,148.267
-0.412,-0.402,1.304,250.130,-239.550,149.214
-0.315,-0.820,0.505,250.130,-250.137,123.573
-0.397,-0.924,-0.572,250.130,-250.137,97.954
-0.352,-0.710,-1.918,250.130,-250.137,63.489
-0.543,-0.490,-2.000,250.130,-250.137,66.069
-0.472,-0.258,-2.000,250.130,-250.137,119.107
-0.247,-0.247,-2.000,83.466,-74.053,110.046
0.005,-0.025,-2.000,-99.618,35.626,50.863
0.047,0.091,-1.567,-208.137,98.664,-0.573
0.052,0.238,-1.066,-250.137,130.511,-42.443
0.002,0.396,-0.787,-250.137,139.931,-78.977
-0.126,0.489,-0.695,-250.137,132.695,-91.763
-0.206,0.632,-0.683,-250.137,127.977,-82.458
-0.224,0.709,-0.724,-250.137,118.725,-65.336
-0.179,0.731,-0.694,-250.137,115.130,-48.847
-0.171,0.743,-0.607,-250.137,119.847,-30.290
-0.140,0.727,-0.545,-250.137,132.878,-14.305
-0.121,0.704,-0.309,-250.137,147.992,-5.359
-0.058,0.660,-0.042,-250.137,151.229,-4.725
-0.055,0.636,0.246,-250.137,138.198,-9.427
-0.021,0.650,0.497,-250.137,119.229,-21.664
-0.001,0.721,0.753,-250.137,97.313,-32.802
-0.031,0.786,0.935,-250.137,82.176,-38.076
-0.086,0.813,1.031,-207.351,59.580,-37.565
-0.089,0.881,1.065,-142.687,32.634,-32.649
-0.105,0.927,1.017,-90.885,16.992,-22.244
-0.080,0.930,0.939,-43.160,7.931,-6.626
-0.063,0.905,0.835,-10.115,-3.893,2.450
-0.012,0.884,0.721,14.107,-8.412,7.626
0.040,0.850,0.606,28.740,-11.672,7.679
0.066,0.849,0.499,34.252,-10.198,2.534
0.059,0.847,0.428,33.954,-9.679,-2.443
0.047,0.831,0.369,31.359,-10.962,-7.221
0.039,0.850,0.304,24.061,-8.267,-12.756
-0.008,0.853,0.267,15.473,-0.748,-16.107
-0.060,0.866,0.258,3.176,1.038,-16.901
-0.099,0.889,0.277,-8.802,4.473,-14.221
-0.125,0.892,0.331,-15.756,6.626,-8.275
-0.121,0.879,0.394,-17.466,6.168,-4.214
-0.086,0.874,0.430,-14.794,4.916,-1.534
-0.087,0.875,0.455,-10.786,4.870,-0.618
-0.080,0.875,0.466,-6.198,4.466,2.061
-0.059,0.861,0.483,-0.847,4.748,2.901
-0.052,0.872,0.458,1.542,2.366,1.779

0.000,0.988,0.813,13.046,12.641,9.076
-0.029,0.996,1.159,43.252,12.153,8.947
-0.066,1.070,1.296,96.550,15.061,20.870
-0.017,0.975,1.610,173.893,38.214,27.824
-0.080,0.816,1.840,250.130,23.344,45.038
-0.256,0.442,1.858,250.130,-20.740,58.527
-0.391,0.113,1.534,250.130,-114.038,76.038
-0.437,-0.166,0.948,250.130,-213.412,85.565
-0.545,-0.495,0.166,250.130,-250.137,79.885
-0.440,-0.617,-0.640,250.130,-250.137,67.267
-0.476,-0.645,-1.718,250.130,-250.137,43.702
-0.624,-0.300,-2.000,250.130,-250.137,61.275
-0.429,-0.088,-2.000,226.023,-205.511,57.939
-0.301,-0.002,-2.000,-19.023,-23.084,36.313
-0.354,-0.051,-1.915,-160.176,74.542,3.466
-0.459,0.053,-1.375,-229.809,124.664,-9.107
-0.410,0.147,-1.062,-250.137,136.130,-11.771
-0.356,0.322,-0.875,-250.137,139.336,-14.565
-0.353,0.506,-0.756,-250.137,138.832,-11.130
-0.282,0.573,-0.669,-250.137,145.595,4.191
-0.199,0.620,-0.696,-250.137,145.160,11.366
-0.184,0.645,-0.540,-250.137,145.901,12.336
-0.162,0.652,-0.396,-250.137,158.198,14.649
-0.130,0.660,-0.164,-250.137,171.557,18.878
-0.084,0.656,0.096,-250.137,182.336,18.771
-0.031,0.612,0.398,-250.137,174.229,11.779
0.036,0.618,0.681,-250.137,146.336,2.321
0.098,0.674,0.974,-250.137,117.130,-10.840
0.122,0.731,1.126,-250.137,95.939,-24.076
0.080,0.787,1.225,-206.008,72.885,-30.985
0.062,0.830,1.245,-127.656,51.122,-33.229
-0.017,0.857,1.146,-57.901,26.969,-30.153
-0.076,0.881,0.958,-7.015,7.351,-22.641
-0.111,0.900,0.758,17.260,-10.252,-13.000
-0.083,0.910,0.595,25.237,-13.420,-2.626
-0.039,0.891,0.525,25.191,-9.580,6.634
0.027,0.856,0.500,25.420,-6.893,9.229
0.075,0.823,0.471,27.458,-3.687,4.626
0.076,0.823,0.410,26.344,-4.878,-5.351
0.042,0.833,0.355,21.519,-4.214,-13.954
-0.009,0.850,0.333,15.496,-0.420,-19.076
-0.077,0.859,0.301,5.710,2.702,-19.893
-0.122,0.874,0.321,-5.626,3.305,-16.809
-0.139,0.883,0.357,-11.924,8.015,-11.855
-0.146,0.878,0.417,-14.939,6.939,-6.649
-0.120,0.863,0.453,-12.351,5.519,-2.718
-0.102,0.859,0.462,-7.191,4.679,-0.634
-0.097,0.861,0.459,-3.412,5.763,1.145
-0.092,0.862,0.461,-1.771,5.176,1.305
-0.077,0.860,0.457,0.206,5.214,2.496

0.016,0.961,0.856,43.832,30.847,13.084
0.067,1.024,1.143,92.725,74.336,5.786
0.031,1.180,1.435,144.817,117.855,19.427
-0.330,0.896,1.750,242.267,116.550,43.634
-0.492,0.638,1.888,250.130,59.336,85.695
-0.441,0.305,1.615,250.130,-30.466,119.542
-0.344,-0.077,0.832,250.130,-158.947,135.252
-0.279,-0.193,-0.032,250.130,-250.137,118.611
-0.080,-0.095,-0.997,250.130,-250.137,80.115
-0.072,-0.048,-1.742,250.130,-250.137,48.580
-0.355,0.312,-2.000,250.130,-250.137,43.221
-0.154,0.211,-2.000,140.450,-179.206,37.275
-0.086,0.292,-2.000,-29.267,-21.099,15.740
-0.047,0.295,-1.682,-146.840,84.489,-20.191
-0.160,0.433,-1.115,-206.634,132.336,-51.931
-0.281,0.559,-0.756,-230.359,134.908,-60.069
-0.377,0.690,-0.567,-241.573,115.344,-43.115
-0.337,0.736,-0.529,-249.435,95.954,-18.634
-0.282,0.784,-0.423,-250.137,88.145,1.481
-0.206,0.816,-0.415,-250.137,86.023,14.649
-0.169,0.832,-0.346,-250.137,86.527,23.153
-0.110,0.843,-0.286,-250.137,91.160,27.641
-0.026,0.816,-0.149,-250.137,99.473,27.298
0.030,0.789,-0.000,-250.137,109.740,22.939
0.085,0.791,0.161,-250.137,119.542,12.420
0.095,0.766,0.361,-250.137,122.649,-2.672
0.119,0.754,0.572,-250.137,118.519,-16.794
0.065,0.775,0.741,-250.137,107.206,-28.405
0.041,0.828,0.890,-222.237,79.901,-36.198
0.010,0.867,0.976,-174.802,51.832,-37.023
-0.032,0.877,1.023,-121.023,30.084,-35.901
-0.079,0.912,0.970,-70.985,13.420,-30.275
-0.122,0.924,0.853,-33.481,-0.725,-20.015
-0.129,0.925,0.732,-10.656,-10.985,-10.076
-0.095,0.926,0.600,2.244,-13.519,-1.053
-0.051,0.893,0.513,7.947,-9.519,5.397
-0.003,0.870,0.464,10.634,-6.550,5.809
0.026,0.851,0.455,15.397,-5.435,2.229
0.029,0.837,0.423,19.336,-3.664,-3.168
0.017,0.834,0.375,20.496,-3.863,-9.435
-0.008,0.854,0.326,17.901,1.053,-14.802
-0.053,0.870,0.282,10.099,4.282,-17.817
-0.095,0.878,0.302,2.053,8.885,-17.282
-0.136,0.878,0.332,-3.985,10.908,-13.740
-0.132,0.879,0.356,-8.076,7.901,-9.008
-0.126,0.883,0.380,-9.916,6.710,-5.664
-0.121,0.886,0.411,-8.725,5.366,-2.229
-0.103,0.877,0.424,-6.450,3.489,0.282
-0.086,0.875,0.424,-4.435,3.550,0.870
-0.085,0.882,0.435,-2.420,4.496,1.153

-0.114,0.975,0.716,18.947,12.672,4.977
-0.145,1.008,0.996,58.115,32.443,4.611
-0.234,1.063,1.184,114.382,33.137,17.069
-0.298,1.019,1.351,177.702,25.229,42.511
-0.317,0.846,1.461,250.130,-9.573,67.550
-0.277,0.675,1.343,250.130,-48.122,89.000
-0.190,0.514,1.043,250.130,-76.519,99.229
-0.167,0.311,0.638,250.130,-134.031,107.282
-0.036,0.127,0.102,250.130,-187.496,102.069
0.126,0.071,-0.480,250.130,-199.084,79.802
0.274,0.155,-1.078,250.130,-162.130,47.191
0.217,0.180,-1.501,250.130,-128.191,9.748
0.178,0.247,-1.772,250.130,-96.267,-21.229
0.021,0.345,-1.846,160.649,-61.893,-41.015
-0.152,0.443,-1.757,32.015,-33.191,-38.931
-0.226,0.441,-1.409,-34.351,-3.282,-29.328
-0.289,0.489,-1.225,-85.069,-3.489,-12.313
-0.252,0.518,-1.157,-128.412,2.023,7.359
-0.187,0.520,-1.128,-167.733,12.710,16.733
-0.138,0.536,-1.104,-217.282,29.069,19.115
-0.121,0.579,-1.006,-250.137,45.344,20.382
-0.115,0.600,-0.823,-250.137,62.847,20.802
-0.063,0.618,-0.604,-250.137,84.847,18.603
-0.018,0.655,-0.370,-250.137,107.405,8.656
-0.006,0.642,-0.146,-250.137,129.725,-3.496
-0.014,0.627,0.094,-250.137,140.565,-15.137
-0.003,0.667,0.289,-250.137,141.397,-27.206
-0.024,0.700,0.527,-250.137,129.053,-37.855
-0.038,0.760,0.736,-250.137,109.031,-43.725
-0.097,0.795,0.932,-250.137,88.672,-44.947
-0.086,0.861,1.117,-216.000,73.038,-42.878
-0.165,0.863,1.200,-150.718,45.733,-31.893
-0.104,0.918,1.228,-89.069,24.443,-19.939
-0.104,0.894,1.119,-23.382,2.443,-6.351
-0.069,0.878,0.940,17.618,-18.718,0.244
-0.009,0.871,0.723,40.305,-25.298,0.298
0.008,0.849,0.544,47.702,-25.145,-2.519
0.019,0.861,0.427,47.504,-22.046,-5.947
0.002,0.853,0.341,43.527,-16.015,-8.359
-0.019,0.854,0.286,36.290,-11.084,-10.740
-0.033,0.855,0.246,22.802,-8.649,-13.588
-0.059,0.853,0.248,11.771,-4.550,-15.168
-0.097,0.864,0.256,1.244,1.053,-15.901
-0.119,0.874,0.296,-7.015,6.275,-15.634
-0.156,0.876,0.334,-12.924,7.870,-13.359
-0.176,0.889,0.376,-15.840,6.290,-8.229
-0.160,0.884,0.415,-15.137,6.290,-2.206
-0.133,0.878,0.450,-11.130,6.550,2.496
-0.104,0.870,0.472,-6.702,4.718,3.649
-0.084,0.872,0.472,-0.328,3.977,3.267

-0.007,1.005,0.829,48.260,-0.275,20.634
0.028,0.998,1.104,104.977,25.878,16.290
0.023,0.969,1.316,188.275,51.275,22.107
-0.209,0.878,1.252,250.130,-4.046,43.168
-0.189,0.657,1.361,250.130,-27.405,44.878
-0.292,0.555,1.176,250.130,-41.771,59.115
-0.260,0.424,0.760,250.130,-101.824,79.588
-0.145,0.160,0.282,250.130,-161.267,87.183
-0.011,-0.009,-0.475,250.130,-189.313,76.313
0.029,-0.058,-1.342,250.130,-208.382,52.473
-0.088,0.291,-2.000,250.130,-233.824,35.397
0.203,0.186,-2.000,169.649,-129.282,-0.420
0.034,0.239,-2.000,15.344,-12.771,-33.382
-0.213,0.223,-1.599,-76.443,27.710,-42.733
-0.317,0.335,-1.204,-126.603,34.084,-33.076
-0.337,0.431,-0.998,-159.855,35.389,-17.687
-0.339,0.516,-0.882,-179.779,36.969,-2.099
-0.281,0.606,-0.823,-199.641,41.924,11.420
-0.236,0.716,-0.772,-226.053,53.977,23.885
-0.215,0.761,-0.722,-250.137,65.160,38.802
-0.132,0.738,-0.640,-250.137,72.992,50.695
-0.033,0.720,-0.512,-250.137,84.076,54.435
0.089,0.717,-0.337,-250.137,101.519,43.939
0.139,0.703,-0.133,-250.137,119.603,30.107
0.189,0.697,0.065,-250.137,138.863,14.336
0.201,0.667,0.290,-250.137,148.504,-8.229
0.197,0.691,0.559,-250.137,137.870,-32.176
0.169,0.764,0.802,-250.137,121.679,-51.588
0.064,0.819,0.990,-250.137,103.107,-62.008
-0.040,0.846,1.122,-187.504,80.359,-64.008
-0.143,0.904,1.198,-118.229,47.328,-54.863
-0.210,0.927,1.156,-53.878,9.466,-35.061
-0.189,0.921,1.017,2.137,-24.473,-11.580
-0.066,0.887,0.763,40.366,-42.405,3.725
0.016,0.870,0.564,56.588,-41.542,5.687
0.072,0.857,0.388,55.779,-34.481,-0.336
0.077,0.850,0.297,46.740,-24.733,-8.420
0.044,0.851,0.258,35.229,-12.557,-16.191
-0.007,0.863,0.236,24.130,-3.290,-21.206
-0.064,0.878,0.233,9.237,1.687,-22.794
-0.106,0.894,0.245,-3.908,6.260,-21.466
-0.138,0.890,0.305,-11.725,10.618,-17.168
-0.152,0.894,0.350,-15.489,10.206,-12.282
-0.153,0.896,0.397,-15.084,8.763,-7.725
-0.144,0.897,0.408,-14.641,6.015,-2.405
-0.122,0.897,0.421,-11.618,4.115,2.382
-0.087,0.893,0.432,-6.992,5.061,6.015
-0.044,0.874,0.441,-1.061,6.412,6.504
-0.028,0.870,0.410,0.260,5.252,3.145
-0.017,0.869,0.401,-0.939,5.695,0.588

-0.012,1.050,0.792,26.748,21.672,6.962
0.009,1.115,1.173,91.069,68.985,6.000
-0.205,1.033,1.424,170.282,90.099,23.473
-0.222,0.953,1.738,250.130,67.344,52.908
-0.434,0.512,1.724,250.130,28.885,93.763
-0.386,0.224,1.370,250.130,-57.595,120.374
-0.150,-0.006,0.723,250.130,-162.534,115.595
-0.111,-0.114,0.100,250.130,-250.137,91.427
-0.010,-0.138,-0.800,250.130,-250.137,56.260
-0.224,0.252,-2.000,250.130,-250.137,49.290
0.147,0.155,-2.000,250.130,-232.450,1.000
0.000,0.277,-2.000,114.962,-87.290,-18.618
-0.144,0.313,-2.000,-39.992,17.130,-34.626
-0.340,0.329,-1.296,-116.794,52.374,-34.069
-0.447,0.413,-0.852,-139.008,35.939,-15.863
-0.424,0.563,-0.761,-143.137,16.634,8.908
-0.355,0.634,-0.803,-153.542,13.374,31.405
-0.270,0.665,-0.857,-177.214,24.046,47.008
-0.159,0.710,-0.840,-205.611,43.794,52.931
-0.087,0.745,-0.757,-241.466,65.962,51.916
-0.040,0.752,-0.649,-250.137,86.168,47.115
-0.014,0.789,-0.545,-250.137,108.664,41.992
0.026,0.766,-0.385,-250.137,128.328,35.122
0.048,0.751,-0.170,-250.137,140.267,26.771
0.122,0.724,0.050,-250.137,146.405,13.176
0.169,0.720,0.305,-250.137,149.847,-4.748
0.151,0.755,0.552,-250.137,137.832,-23.779
0.106,0.789,0.739,-250.137,115.779,-37.802
0.072,0.869,0.934,-224.885,89.634,-42.733
-0.009,0.909,1.044,-158.672,56.763,-37.733
-0.047,0.906,1.069,-85.824,28.267,-27.794
-0.071,0.963,0.951,-22.618,1.695,-12.198
-0.036,0.942,0.743,14.763,-21.275,1.718
0.051,0.931,0.535,32.802,-29.641,5.115
0.098,0.907,0.397,36.756,-25.397,3.191
0.116,0.888,0.317,33.466,-16.550,-3.237
0.092,0.878,0.273,27.641,-7.198,-12.298
0.043,0.888,0.245,22.328,-2.458,-18.511
-0.001,0.893,0.207,14.649,2.229,-21.840
-0.047,0.908,0.183,3.405,5.977,-23.053
-0.103,0.919,0.226,-6.145,8.557,-19.260
-0.115,0.918,0.278,-10.458,9.527,-13.588
-0.102,0.914,0.292,-11.412,9.038,-9.634
-0.101,0.917,0.302,-14.840,5.412,-7.824
-0.099,0.924,0.325,-14.863,7.328,-4.634
-0.095,0.923,0.354,-12.939,9.611,-0.649
-0.064,0.914,0.369,-9.763,9.573,2.053
-0.033,0.914,0.374,-7.656,9.374,2.206
-0.017,0.907,0.375,-6.840,7.679,1.641
-0.010,0.910,0.381,-3.183,5.779,1.260

0.178,1.039,0.661,33.649,43.420,7.214
0.153,1.062,1.028,74.924,74.817,-9.237
0.142,1.135,1.365,152.038,95.794,-3.603
-0.216,0.818,1.674,250.130,88.275,22.237
-0.306,0.577,1.631,250.130,12.160,47.359
-0.425,0.425,1.215,250.130,-88.565,53.191
-0.532,0.267,0.716,250.130,-209.130,70.229
-0.386,0.065,0.178,250.130,-250.137,79.038
-0.166,-0.085,-0.644,250.130,-250.137,59.244
-0.305,0.227,-2.000,250.130,-250.137,46.947
0.070,0.046,-2.000,250.130,-213.817,23.427
-0.053,0.196,-2.000,130.053,-79.405,-6.496
-0.152,0.200,-1.942,-21.550,13.794,-30.718
-0.347,0.285,-1.335,-97.260,41.962,-35.931
-0.447,0.354,-0.968,-122.802,32.298,-21.885
-0.431,0.503,-0.897,-141.588,21.336,1.038
-0.366,0.588,-0.899,-163.145,22.359,20.939
-0.291,0.663,-0.880,-185.359,33.534,30.588
-0.260,0.735,-0.880,-216.771,46.137,39.183
-0.203,0.745,-0.779,-248.145,67.023,45.481
-0.147,0.761,-0.649,-250.137,89.885,47.305
-0.088,0.759,-0.514,-250.137,103.740,44.725
-0.030,0.776,-0.355,-250.137,115.389,40.588
-0.000,0.778,-0.203,-250.137,122.061,35.511
0.081,0.786,-0.096,-250.137,125.466,29.275
0.085,0.750,0.092,-250.137,125.763,20.611
0.159,0.734,0.231,-250.137,117.870,6.939
0.227,0.777,0.348,-250.137,110.527,-9.595
0.183,0.790,0.504,-250.137,100.168,-30.985
0.125,0.833,0.643,-224.107,86.740,-44.817
0.028,0.897,0.751,-183.305,75.893,-51.160
-0.064,0.942,0.813,-139.267,57.779,-45.634
-0.109,0.968,0.859,-97.160,34.214,-33.710
-0.083,0.967,0.835,-53.237,16.313,-20.786
-0.082,0.959,0.767,-19.099,-0.985,-10.176
-0.039,0.941,0.666,5.649,-10.870,-3.908
-0.009,0.917,0.551,21.122,-14.878,-4.076
0.010,0.899,0.422,28.824,-13.443,-7.901
-0.006,0.896,0.352,28.435,-9.641,-13.153
-0.037,0.894,0.290,23.137,-7.504,-17.046
-0.077,0.901,0.256,16.344,-5.267,-19.122
-0.114,0.913,0.232,8.282,-3.260,-17.794
-0.144,0.909,0.245,3.405,0.267,-14.718
-0.151,0.912,0.249,0.313,1.481,-8.947
-0.139,0.910,0.258,-4.817,4.282,-4.710
-0.129,0.908,0.292,-8.962,4.840,-2.023
-0.118,0.910,0.319,-9.550,6.221,1.420
-0.098,0.917,0.353,-8.580,5.786,4.847
-0.074,0.907,0.351,-6.374,6.962,6.534
-0.038,0.907,0.371,-3.931,7.458,5.550

