aX,aY,aZ,gX,gY,gZ
0.625,0.836,0.348,22.985,-3.977,-70.618
0.752,0.760,0.513,42.969,6.015,-120.840
0.844,0.663,0.500,66.061,18.718,-176.458
0.741,0.583,0.427,89.504,32.824,-232.046
0.463,0.552,0.088,95.756,34.573,-250.137
0.037,0.629,-0.164,79.176,31.176,-250.137
-0.363,0.708,-0.119,58.076,16.496,-250.137
-0.705,0.778,-0.128,40.718,-9.756,-240.580
-0.723,0.823,-0.173,27.489,-20.580,-214.008
-0.900,0.881,-0.167,19.427,-12.573,-187.176
-0.937,0.877,-0.151,12.237,-7.122,-153.519
-0.824,0.809,-0.055,5.023,-4.504,-137.000
-0.951,0.805,-0.015,7.328,-0.481,-120.733
-0.993,0.797,-0.122,2.870,-0.458,-100.870
-1.197,0.861,-0.140,-7.481,-4.702,-74.710
-1.317,0.878,-0.131,-14.252,-16.786,-31.359
-1.264,0.876,-0.131,-32.321,-46.122,7.061
-1.156,0.905,-0.047,-43.641,-59.168,42.878
-0.992,0.896,0.094,-41.641,-47.802,75.603
-0.740,0.841,0.271,-29.496,-31.099,93.702
-0.592,0.830,0.365,-8.901,-18.298,100.099
-0.513,0.849,0.281,7.382,-12.351,104.405
-0.466,0.856,0.188,13.557,-9.634,109.023
-0.444,0.857,0.099,10.542,-18.282,111.115
-0.442,0.868,0.034,2.031,-34.336,113.267
-0.396,0.901,-0.018,-8.649,-40.763,117.603
-0.280,0.899,0.048,-14.931,-26.809,119.237
-0.259,0.910,0.193,-8.221,-12.061,122.176
-0.120,0.838,0.205,-0.176,-8.710,111.611
-0.162,0.877,0.109,4.351,-10.305,104.832
-0.157,0.896,0.046,-1.061,-12.214,101.985
-0.128,0.895,0.018,-8.313,-15.420,96.527
-0.160,0.885,0.043,-14.779,-21.786,90.985
-0.090,0.925,0.042,-25.198,-22.756,86.901
-0.088,0.973,0.133,-21.786,-7.618,82.954
0.014,0.919,0.230,-11.397,5.015,72.534
-0.081,0.928,0.249,-4.321,3.931,67.382
-0.084,0.932,0.127,-5.656,-6.313,66.328
-0.054,0.947,0.092,-11.206,-11.809,65.687
0.059,0.945,0.134,-15.443,-7.115,61.588
0.110,0.931,0.216,-12.542,-1.695,52.069
0.111,0.922,0.235,-6.221,1.107,40.947
0.086,0.949,0.213,-1.260,2.137,32.336
0.086,0.951,0.162,0.076,7.000,27.061
0.048,0.957,0.140,-1.237,8.931,23.870
0.061,0.951,0.178,-4.237,3.985,22.099
0.089,0.938,0.199,-2.779,-2.267,17.832
0.061,0.956,0.141,-2.511,-6.412,13.817
0.057,0.964,0.139,-5.664,-6.206,12.221
0.100,0.953,0.187,-3.977,-1.954,7.634

1.129,0.654,-0.039,-24.321,-25.847,-151.809
1.350,0.527,-0.062,-42.534,-10.084,-232.366
1.092,0.392,0.014,-58.954,9.145,-250.137
0.598,0.362,0.167,-65.580,2.985,-250.137
0.155,0.386,0.268,-61.282,-7.137,-250.137
-0.476,0.491,0.331,-52.015,-13.832,-250.137
-1.112,0.718,0.341,-49.443,-27.366,-250.137
-1.642,0.952,0.440,-42.115,-37.092,-240.229
-1.874,1.055,0.511,-26.420,-40.031,-133.107
-1.673,1.016,0.472,-11.947,-46.786,-46.374
-1.304,0.889,0.444,-3.618,-53.221,6.817
-1.107,0.827,0.366,5.725,-41.588,36.290
-0.996,0.784,0.220,6.275,-15.137,59.099
-0.923,0.742,0.192,-3.847,-4.214,77.924
-0.892,0.723,0.229,-10.840,-6.191,95.878
-0.854,0.741,0.245,-15.580,-20.435,117.435
-0.812,0.785,0.236,-18.595,-24.954,141.374
-0.659,0.805,0.164,-25.557,-11.550,164.985
-0.435,0.825,0.138,-45.443,1.573,183.130
-0.198,0.761,0.173,-73.206,2.794,184.511
0.003,0.726,0.267,-97.626,-6.962,173.153
0.101,0.706,0.447,-100.145,-17.473,154.817
0.169,0.732,0.619,-81.107,-22.237,143.015
0.258,0.750,0.531,-57.893,-9.611,128.977
0.308,0.777,0.484,-49.298,-0.931,110.809
0.299,0.798,0.424,-50.840,-8.550,92.550
0.289,0.738,0.451,-51.641,-11.809,78.527
0.195,0.758,0.425,-54.237,-15.115,71.763
0.243,0.743,0.452,-50.725,-18.183,61.481
0.176,0.772,0.487,-44.069,-16.321,57.695
0.174,0.815,0.385,-47.046,-3.534,63.282
0.204,0.782,0.335,-60.061,16.076,63.565
0.090,0.760,0.319,-76.611,15.786,65.924
0.092,0.785,0.380,-92.221,6.359,68.412
-0.006,0.777,0.469,-98.710,-0.061,73.275
0.010,0.683,0.593,-98.542,-5.702,80.618
0.133,0.671,0.724,-85.947,1.954,80.511
0.144,0.653,0.800,-61.916,-0.321,77.916
0.251,0.628,0.797,-43.611,0.053,61.229
0.281,0.633,0.813,-22.626,-9.176,41.160
0.242,0.635,0.782,-6.046,-6.328,29.679
0.115,0.697,0.745,12.802,0.405,33.916
0.172,0.740,0.723,24.008,14.000,42.519
0.127,0.711,0.696,33.031,28.672,54.939
0.242,0.669,0.692,37.450,32.519,59.557
0.280,0.622,0.674,40.954,21.481,49.206
0.419,0.729,0.662,44.282,7.588,19.992
0.369,0.587,0.616,46.481,13.656,9.076
0.311,0.666,0.649,48.321,0.282,1.145
0.270,0.716,0.589,49.656,-4.092,-2.931

0.763,0.746,0.300,-11.107,3.305,-78.550
0.930,0.607,0.319,-6.359,-7.618,-132.748
0.968,0.512,0.178,-8.450,-12.779,-200.443
0.770,0.441,0.094,-25.962,-11.321,-250.137
0.487,0.374,-0.000,-42.237,1.534,-250.137
0.123,0.378,0.108,-54.924,18.939,-250.137
-0.331,0.412,0.241,-50.695,29.206,-250.137
-0.600,0.548,0.275,-41.832,40.656,-250.137
-0.860,0.577,0.321,-36.748,47.725,-250.137
-1.124,0.695,0.423,-31.420,42.008,-250.137
-1.600,0.909,0.494,-22.137,26.237,-218.130
-1.919,1.068,0.521,-15.519,-3.191,-135.840
-2.000,1.122,0.583,-0.221,-34.107,-32.443
-1.710,1.058,0.595,21.267,-47.565,56.557
-1.425,0.951,0.440,36.435,-44.191,118.725
-1.189,0.880,0.348,42.969,-30.038,166.328
-0.982,0.803,0.294,45.481,-14.214,200.344
-0.767,0.734,0.248,43.847,-0.122,227.557
-0.501,0.623,0.237,37.916,6.916,237.053
-0.240,0.602,0.199,30.153,6.534,233.695
-0.019,0.568,0.191,18.931,2.954,213.092
0.144,0.617,0.195,11.122,3.679,186.382
0.279,0.662,0.196,5.908,14.756,154.008
0.286,0.699,0.208,2.641,22.489,128.481
0.200,0.767,0.208,-0.580,21.802,104.718
0.169,0.860,0.234,-7.107,29.229,97.718
0.245,0.846,0.314,-8.840,30.702,88.458
0.268,0.845,0.392,-1.687,31.389,72.580
0.180,0.897,0.408,14.504,23.534,58.634
0.103,0.899,0.339,19.595,9.000,52.748
0.208,0.844,0.309,23.206,2.687,39.702
0.160,0.898,0.242,5.489,-9.702,41.756
0.213,0.890,0.271,3.206,-0.519,25.878
0.251,0.914,0.320,6.351,5.366,19.786
0.327,0.885,0.309,14.359,9.115,1.107
0.208,0.892,0.266,18.679,4.809,-24.305
0.007,0.944,0.188,14.191,-6.832,-33.496
-0.244,0.933,0.273,12.160,-48.198,-7.328
0.001,1.052,0.106,-1.473,-40.824,-7.298
-0.279,1.020,0.197,-10.496,-45.672,4.779
0.017,1.089,0.100,-16.153,-45.023,8.412
-0.167,1.007,0.189,-15.664,-21.336,8.534
-0.178,1.057,0.229,-11.809,-16.458,23.038
-0.121,1.058,0.219,-9.595,5.840,35.191
0.006,1.003,0.276,-10.672,10.824,48.092
0.143,0.951,0.293,-7.046,13.260,45.992
0.143,0.906,0.335,-0.145,9.237,36.817
0.187,0.915,0.286,4.679,7.427,27.824
0.087,0.909,0.256,6.397,8.145,23.511
0.138,0.906,0.260,8.702,11.588,24.565

0.620,0.844,0.365,-0.817,15.985,-17.160
0.874,0.779,0.446,14.763,21.000,-45.267
1.213,0.640,0.426,31.588,4.527,-103.244
1.459,0.508,0.313,36.893,-8.305,-184.992
1.316,0.326,0.186,32.939,-8.466,-250.137
0.844,0.169,0.095,21.466,-13.053,-250.137
0.424,0.037,0.069,2.336,-34.458,-250.137
0.111,-0.003,0.094,-18.573,-50.115,-250.137
-0.238,0.056,0.178,-38.458,-46.725,-250.137
-0.705,0.237,0.349,-41.954,-29.832,-250.137
-1.340,0.520,0.509,-28.405,-15.473,-250.137
-2.000,0.915,0.463,-15.496,-19.679,-250.137
-2.000,1.236,0.516,-1.618,-44.534,-190.962
-2.000,1.367,0.560,25.267,-59.153,-0.969
-1.996,1.083,0.559,49.954,-59.817,129.855
-1.365,0.792,0.469,66.130,-54.458,179.885
-0.813,0.675,0.354,77.611,-34.153,201.443
-0.562,0.619,0.266,82.756,-10.107,197.206
-0.487,0.641,0.175,83.412,7.924,192.420
-0.467,0.657,0.141,84.092,21.641,191.931
-0.362,0.660,0.051,77.305,30.237,191.244
-0.200,0.671,-0.015,58.107,32.718,178.656
-0.069,0.700,-0.073,29.489,29.786,157.565
-0.022,0.742,-0.051,-1.183,25.794,134.076
-0.026,0.835,0.113,-15.458,27.298,116.649
-0.070,0.885,0.199,-12.603,30.397,111.786
-0.020,0.873,0.230,-4.519,27.809,105.656
-0.001,0.883,0.182,-1.511,21.786,99.664
-0.014,0.905,0.173,-1.878,18.031,94.565
-0.013,0.913,0.161,-0.817,16.443,92.710
0.011,0.969,0.014,-0.053,16.947,91.389
0.049,0.955,0.007,-4.687,15.298,92.893
0.170,0.881,0.101,-7.626,18.809,78.924
0.166,0.895,0.097,-11.977,15.634,67.260
0.117,0.927,0.092,-15.855,14.183,67.412
0.169,0.922,0.165,-15.351,16.878,64.298
0.212,0.901,0.196,-13.603,14.145,54.557
0.223,0.930,0.193,-12.031,13.519,45.580
0.229,0.932,0.176,-10.855,16.099,37.885
0.233,0.930,0.217,-9.099,16.878,28.183
0.177,0.940,0.218,-6.992,14.420,21.130
0.169,0.958,0.214,-5.328,12.687,20.000
0.175,0.946,0.226,-3.359,10.634,16.863
0.155,0.954,0.215,-0.931,7.641,14.229
0.139,0.960,0.205,-1.305,7.328,14.000
0.144,0.950,0.220,-0.382,5.008,14.344
0.180,0.947,0.202,1.893,6.305,12.855
0.198,0.936,0.193,2.924,7.053,8.939
0.190,0.941,0.172,2.191,6.718,6.153
0.204,0.943,0.158,0.435,5.282,3.168

-0.917,0.435,0.556,-59.863,30.275,-250.137
-1.712,0.746,0.610,-45.969,35.916,-250.137
-2.000,1.119,0.671,-33.473,3.885,-220.595
-2.000,1.273,0.714,-7.260,-29.519,-43.656
-2.000,1.085,0.764,23.176,-39.412,88.160
-1.365,0.837,0.663,50.885,-25.863,144.305
-0.902,0.668,0.549,68.313,-9.634,174.863
-0.601,0.584,0.464,80.206,3.771,176.298
-0.533,0.600,0.371,85.366,9.481,169.924
-0.512,0.603,0.256,86.321,9.053,167.290
-0.452,0.604,0.140,80.198,5.550,165.305
-0.340,0.648,0.040,66.626,5.313,154.733
-0.279,0.705,0.001,45.832,13.282,136.969
-0.290,0.775,0.038,29.275,18.145,126.008
-0.294,0.810,0.103,18.603,22.504,122.351
-0.268,0.847,0.165,14.550,23.351,119.901
-0.259,0.850,0.201,14.809,17.443,119.740
-0.224,0.854,0.196,18.076,8.595,119.000
-0.162,0.851,0.140,16.092,3.603,120.137
-0.112,0.869,0.117,13.282,5.977,116.015
-0.105,0.880,0.108,8.885,9.695,114.191
-0.092,0.892,0.115,5.359,13.656,112.710
-0.144,0.928,0.153,5.702,13.450,114.244
0.042,0.835,0.180,1.779,9.046,108.595
0.060,0.883,0.126,-0.008,-0.260,99.969
0.111,0.902,0.076,-4.107,-1.069,95.229
0.203,0.873,0.102,-8.336,4.229,84.374
0.197,0.878,0.152,-8.763,8.069,70.466
0.159,0.918,0.159,-5.611,10.656,60.733
0.171,0.928,0.140,-5.794,11.412,55.183
0.187,0.928,0.150,-7.656,9.939,45.099
0.192,0.929,0.169,-10.847,6.573,36.107
0.194,0.938,0.188,-11.893,4.908,29.397
0.201,0.935,0.195,-11.145,6.832,22.550
0.211,0.929,0.212,-8.359,9.901,14.733
0.169,0.942,0.228,-6.198,12.252,9.458
0.099,0.960,0.259,-2.565,11.168,9.718
0.097,0.963,0.223,-0.153,7.420,13.046
0.124,0.957,0.198,-0.947,4.389,14.069
0.157,0.944,0.179,-4.137,0.725,11.985
0.192,0.944,0.172,-7.137,0.344,8.137
0.201,0.945,0.179,-7.802,3.366,4.649
0.187,0.945,0.220,-4.191,7.038,1.832
0.174,0.932,0.220,-0.718,5.550,-1.710
0.135,0.952,0.185,0.000,4.565,-3.656
0.094,0.967,0.191,-0.779,3.214,-1.740
0.089,0.961,0.198,-0.496,4.893,2.260
0.101,0.972,0.202,-0.618,4.748,4.542
0.125,0.957,0.205,-0.618,5.290,4.069
0.132,0.966,0.211,0.679,3.160,4.336

0.751,0.808,0.245,-1.183,15.206,-37.840
1.032,0.646,0.259,-0.359,3.496,-93.122
1.170,0.551,0.223,-7.374,-20.763,-178.702
0.976,0.433,0.106,-17.198,-34.992,-250.137
0.873,0.364,0.087,-35.763,-53.618,-250.137
0.590,0.252,0.137,-51.115,-61.702,-250.137
0.176,0.236,0.182,-56.595,-43.435,-250.137
-0.228,0.301,0.304,-51.458,-18.053,-250.137
-0.641,0.425,0.420,-33.382,5.611,-250.137
-1.021,0.557,0.428,-17.092,20.137,-250.137
-1.477,0.797,0.428,-9.405,22.290,-250.137
-2.000,1.054,0.414,-7.229,9.130,-225.374
-2.000,1.244,0.529,-2.771,-20.084,-127.725
-2.000,1.309,0.626,20.901,-44.695,12.405
-2.000,1.151,0.591,48.954,-52.901,122.687
-1.401,0.860,0.443,61.000,-46.397,179.305
-0.899,0.701,0.382,70.420,-37.076,203.008
-0.519,0.603,0.262,74.489,-20.718,202.756
-0.267,0.578,0.171,68.840,-2.450,184.099
-0.179,0.584,0.120,61.427,11.947,160.145
-0.161,0.630,0.055,51.458,19.702,137.183
-0.135,0.684,-0.026,35.679,24.206,117.634
-0.132,0.742,-0.047,19.779,27.443,101.588
-0.150,0.810,-0.026,2.176,33.122,88.015
-0.214,0.877,0.072,-7.244,41.099,82.427
-0.258,0.921,0.164,-8.573,46.122,84.947
-0.266,0.930,0.190,-7.992,45.099,89.725
-0.204,0.911,0.250,-5.649,38.893,91.634
-0.152,0.917,0.252,-2.870,28.641,94.656
-0.131,0.918,0.240,2.130,22.481,95.641
-0.071,0.917,0.187,2.718,21.908,96.275
-0.010,0.896,0.160,0.977,23.634,92.550
0.027,0.897,0.156,-1.748,25.916,86.023
0.041,0.901,0.162,-3.260,24.008,78.389
0.080,0.908,0.127,-6.321,22.359,76.183
0.104,0.896,0.165,-7.145,20.412,64.145
0.044,0.922,0.196,-7.588,15.702,60.947
0.016,0.936,0.203,-6.359,13.473,62.893
0.042,0.940,0.200,-4.405,12.611,62.321
0.083,0.936,0.175,-5.053,12.718,58.450
0.099,0.937,0.185,-5.519,14.198,54.298
0.106,0.933,0.217,-5.321,13.397,49.756
0.108,0.935,0.211,-4.061,11.053,45.649
0.125,0.944,0.207,-2.679,8.260,41.282
0.119,0.939,0.213,-2.206,4.626,36.779
0.128,0.943,0.188,-1.443,3.748,33.527
0.124,0.953,0.180,-0.695,5.183,30.191
0.117,0.951,0.159,-0.359,9.611,28.374
0.131,0.947,0.160,-1.695,12.275,26.023
0.114,0.942,0.158,-3.305,11.069,24.137

0.877,0.670,0.263,-11.824,-7.328,-103.786
0.961,0.584,0.229,-16.687,-28.237,-172.031
0.857,0.519,0.124,-26.008,-41.809,-236.771
0.571,0.467,0.090,-43.443,-52.359,-250.137
0.401,0.405,0.156,-59.351,-58.710,-250.137
0.194,0.323,0.191,-58.794,-53.725,-250.137
-0.090,0.317,0.243,-60.725,-37.176,-250.137
-0.348,0.359,0.360,-60.443,-14.489,-250.137
-0.751,0.475,0.471,-44.397,24.496,-250.137
-1.304,0.685,0.562,-29.031,50.672,-250.137
-2.000,0.953,0.620,-15.656,38.244,-248.038
-2.000,1.195,0.648,2.718,-5.458,-135.588
-2.000,1.245,0.566,20.000,-41.832,9.595
-1.892,1.045,0.572,39.802,-38.679,118.763
-1.337,0.784,0.523,53.015,-38.771,170.397
-0.803,0.629,0.449,65.000,-28.198,188.863
-0.425,0.556,0.336,70.603,-13.710,179.351
-0.249,0.525,0.214,66.137,-1.924,151.885
-0.228,0.573,0.132,57.878,7.802,123.634
-0.260,0.660,0.054,43.351,19.290,101.527
-0.296,0.729,0.034,25.511,29.374,85.183
-0.336,0.802,0.037,12.267,36.916,76.397
-0.433,0.878,0.121,0.351,45.153,76.198
-0.473,0.905,0.190,-3.626,46.305,86.244
-0.405,0.896,0.227,-3.115,43.939,97.321
-0.355,0.881,0.277,-3.672,36.344,104.344
-0.318,0.891,0.337,4.229,27.695,110.656
-0.230,0.879,0.276,10.481,24.771,114.870
-0.148,0.865,0.209,10.336,26.321,112.985
-0.097,0.860,0.171,5.511,25.321,106.962
0.044,0.827,0.173,2.992,23.031,96.374
-0.032,0.853,0.168,-4.008,26.695,96.656
-0.038,0.879,0.184,-4.626,25.557,87.527
-0.065,0.901,0.171,-5.687,22.824,87.588
0.008,0.888,0.167,-8.389,23.595,87.511
0.091,0.872,0.209,-11.443,19.183,77.847
0.091,0.895,0.225,-11.206,14.916,67.748
0.102,0.916,0.241,-9.618,14.534,60.656
0.109,0.911,0.249,-8.076,15.168,52.534
0.103,0.924,0.260,-4.420,14.092,44.359
0.078,0.940,0.247,-1.931,12.084,38.595
0.052,0.953,0.252,-0.275,9.695,37.573
0.060,0.945,0.226,1.160,6.389,36.779
0.066,0.937,0.213,0.443,5.580,35.275
0.087,0.939,0.191,-0.924,7.260,34.832
0.130,0.924,0.187,-2.672,10.267,31.389
0.125,0.932,0.202,-2.771,10.466,27.565
0.142,0.939,0.208,-3.420,10.656,24.000
0.158,0.931,0.232,-4.122,7.229,18.168
0.136,0.946,0.237,-3.176,5.359,13.496

0.741,0.771,0.313,-2.099,-3.992,-47.214
1.130,0.611,0.340,3.427,-19.656,-116.954
1.149,0.481,0.181,-3.374,-40.069,-213.618
0.777,0.448,0.036,-29.527,-44.763,-250.137
0.429,0.408,0.214,-52.168,-51.313,-250.137
0.125,0.354,0.453,-40.756,-52.634,-250.137
-0.204,0.370,0.411,-22.809,-41.168,-250.137
-0.553,0.469,0.386,-13.519,-21.847,-250.137
-0.980,0.622,0.385,-8.229,-7.229,-250.137
-1.634,0.849,0.401,-7.260,-2.183,-250.137
-2.000,1.064,0.444,-1.664,-18.290,-165.824
-2.000,1.159,0.497,9.847,-42.221,-45.099
-1.824,1.011,0.516,29.611,-47.366,54.137
-1.310,0.853,0.454,44.740,-41.687,104.420
-1.015,0.719,0.350,55.122,-28.450,129.847
-0.700,0.660,0.256,59.076,-9.786,136.237
-0.606,0.642,0.186,53.901,9.847,128.237
-0.641,0.688,0.155,47.809,23.634,126.893
-0.642,0.734,0.090,39.252,36.443,132.763
-0.582,0.747,0.067,24.511,46.092,137.069
-0.521,0.764,0.100,9.015,50.000,139.832
-0.456,0.813,0.159,-2.305,49.756,142.145
-0.409,0.835,0.250,-4.267,49.802,150.649
-0.281,0.829,0.294,-1.328,43.511,155.176
-0.196,0.823,0.291,0.473,36.924,155.427
-0.111,0.819,0.263,1.786,30.534,154.924
0.013,0.812,0.213,-0.015,27.191,147.817
0.049,0.855,0.107,-0.664,29.756,139.809
0.108,0.853,0.100,-5.664,28.046,135.084
0.162,0.823,0.184,-4.458,30.779,121.038
0.227,0.825,0.193,-9.290,23.527,107.985
0.245,0.841,0.218,-10.840,20.939,97.237
0.296,0.858,0.227,-8.366,17.000,84.153
0.320,0.867,0.213,-5.076,15.344,69.405
0.278,0.908,0.215,-5.580,17.237,57.672
0.271,0.899,0.222,-5.496,18.916,50.015
0.283,0.903,0.253,-5.794,16.550,37.557
0.210,0.934,0.270,-5.008,11.885,28.366
0.166,0.940,0.281,-2.069,9.840,26.313
0.194,0.939,0.245,-1.939,8.664,23.519
0.176,0.937,0.264,-1.473,6.580,18.931
0.182,0.934,0.255,0.550,5.374,17.603
0.215,0.921,0.233,0.885,3.908,12.985
0.200,0.925,0.229,0.824,2.130,7.977
0.162,0.937,0.221,1.969,3.656,5.878
0.138,0.940,0.209,2.221,5.313,5.626
0.123,0.946,0.194,1.015,7.176,6.580
0.120,0.951,0.231,-0.412,6.786,8.382
0.133,0.943,0.231,-0.229,5.496,8.992
0.167,0.939,0.225,-0.305,3.733,7.885

0.741,0.806,0.293,7.229,-5.931,-30.023
1.112,0.709,0.264,10.092,-6.382,-92.168
1.228,0.522,0.165,4.664,-10.687,-179.672
1.138,0.396,0.126,-17.061,-29.191,-250.137
0.666,0.337,0.090,-43.618,-55.954,-250.137
0.260,0.326,0.169,-63.298,-66.504,-250.137
0.037,0.326,0.380,-61.618,-58.885,-250.137
-0.247,0.364,0.558,-40.229,-29.542,-250.137
-0.728,0.508,0.593,-11.053,4.374,-250.137
-1.449,0.736,0.602,12.618,15.176,-250.137
-2.000,1.008,0.470,29.870,-6.794,-222.954
-2.000,1.189,0.367,26.756,-43.252,-89.008
-2.000,1.116,0.440,28.756,-63.374,39.809
-1.499,0.904,0.468,44.351,-55.947,107.962
-1.045,0.696,0.364,61.359,-39.901,137.344
-0.598,0.615,0.171,61.366,-19.420,137.687
-0.446,0.616,0.115,52.496,0.374,121.427
-0.485,0.671,0.107,46.344,19.244,107.122
-0.569,0.740,0.062,39.076,29.634,106.870
-0.565,0.785,0.035,26.725,40.099,113.504
-0.495,0.796,0.043,11.176,46.397,119.786
-0.422,0.843,0.119,-1.015,51.008,122.695
-0.343,0.859,0.190,-7.847,51.733,124.840
-0.283,0.866,0.293,-7.168,49.588,124.748
-0.267,0.879,0.339,0.565,43.863,128.420
-0.208,0.881,0.294,4.145,35.863,133.023
-0.132,0.876,0.254,3.626,25.817,135.397
-0.061,0.849,0.245,4.198,18.733,132.305
0.006,0.855,0.138,-2.031,18.069,134.855
0.122,0.834,0.136,-5.344,21.763,119.924
0.093,0.848,0.197,-5.885,25.168,110.916
0.062,0.881,0.205,-3.282,27.466,110.099
0.121,0.870,0.197,-1.550,23.962,104.489
0.154,0.871,0.201,-3.145,16.611,94.611
0.139,0.888,0.182,-3.641,11.595,88.542
0.166,0.904,0.181,-4.832,14.221,83.183
0.183,0.898,0.191,-4.710,17.412,75.511
0.210,0.907,0.200,-4.687,18.695,67.046
0.221,0.908,0.193,-7.221,17.603,58.603
0.206,0.925,0.214,-8.626,14.855,50.634
0.170,0.932,0.234,-7.611,14.763,48.191
0.206,0.917,0.240,-5.321,14.710,45.405
0.231,0.926,0.219,-2.939,15.397,40.466
0.226,0.924,0.194,-2.023,15.244,36.000
0.239,0.923,0.201,-3.740,13.962,32.840
0.248,0.916,0.208,-4.847,9.863,28.710
0.264,0.917,0.213,-5.321,8.832,25.000
0.288,0.914,0.220,-5.084,7.863,19.748
0.285,0.922,0.232,-4.473,7.718,15.687
0.276,0.912,0.249,-2.954,7.168,11.382

0.730,0.767,0.349,-7.580,-42.053,-55.382
1.018,0.714,0.292,-6.237,-56.351,-108.046
1.236,0.610,0.189,-12.794,-62.122,-177.450
1.227,0.400,0.072,-27.794,-62.458,-250.137
0.863,0.369,0.126,-38.053,-50.779,-250.137
0.518,0.231,0.221,-45.947,-59.267,-250.137
0.378,0.135,0.278,-48.214,-59.580,-250.137
0.010,0.131,0.328,-41.740,-44.481,-250.137
-0.182,0.145,0.390,-36.809,-29.008,-250.137
-0.510,0.256,0.477,-14.931,0.626,-250.137
-0.969,0.398,0.351,-2.786,27.740,-250.137
-1.629,0.644,0.306,-17.435,27.328,-250.137
-2.000,0.974,0.372,-30.244,12.443,-250.137
-2.000,1.283,0.582,-22.855,-16.740,-125.771
-2.000,1.298,0.710,14.260,-40.053,31.977
-1.996,1.024,0.562,43.565,-34.969,141.153
-1.320,0.699,0.473,63.771,-25.405,198.519
-0.708,0.521,0.315,73.366,-18.038,212.351
-0.333,0.472,0.152,64.115,-6.076,193.427
-0.199,0.465,0.117,50.718,4.901,165.176
-0.211,0.544,0.094,39.840,15.893,138.321
-0.236,0.612,0.042,28.115,26.641,119.198
-0.272,0.684,0.003,13.649,39.351,102.947
-0.308,0.779,0.043,-0.145,49.000,92.824
-0.379,0.843,0.142,-7.802,56.000,89.580
-0.419,0.865,0.218,-10.397,55.763,96.634
-0.402,0.883,0.260,-13.168,50.649,103.756
-0.324,0.872,0.329,-11.321,39.565,109.115
-0.269,0.882,0.327,-4.374,29.916,114.069
-0.194,0.858,0.269,-0.458,27.565,114.756
-0.128,0.868,0.237,-0.947,28.519,109.840
-0.100,0.875,0.240,-1.878,29.092,104.626
0.071,0.843,0.205,1.137,26.695,95.176
-0.021,0.831,0.212,-0.504,29.977,94.305
-0.042,0.882,0.145,-6.221,25.366,87.168
-0.054,0.897,0.174,-11.550,23.779,85.832
-0.057,0.896,0.224,-12.008,24.542,86.870
0.016,0.894,0.230,-10.748,23.458,83.000
0.026,0.900,0.235,-10.718,21.260,76.176
0.047,0.911,0.226,-11.710,19.771,71.916
0.099,0.904,0.259,-11.885,17.046,64.427
0.126,0.908,0.282,-9.809,14.893,54.015
0.103,0.915,0.271,-6.427,13.107,47.076
0.097,0.937,0.238,-4.221,13.649,43.710
0.113,0.924,0.226,-4.611,14.359,39.397
0.094,0.932,0.232,-5.160,14.061,33.298
0.082,0.941,0.240,-4.725,12.878,31.550
0.088,0.941,0.236,-4.847,11.244,30.489
0.079,0.939,0.245,-5.221,9.893,30.779
0.116,0.925,0.252,-5.305,10.504,28.702

0.757,0.733,0.369,-1.832,-6.206,-30.504
1.394,0.583,0.444,8.397,-30.504,-103.840
1.573,0.446,0.254,1.252,-56.832,-229.901
1.093,0.334,0.098,-28.832,-63.359,-250.137
0.596,0.250,0.336,-48.878,-67.099,-250.137
0.435,0.071,0.488,-38.634,-80.359,-250.137
0.271,0.022,0.389,-30.198,-69.542,-250.137
-0.250,0.078,0.393,-24.847,-42.321,-250.137
-0.861,0.222,0.339,-15.328,-9.931,-250.137
-1.716,0.598,0.308,-23.344,16.794,-250.137
-2.000,1.007,0.406,-34.687,6.160,-250.137
-2.000,1.295,0.607,-21.153,-20.046,-132.947
-2.000,1.290,0.755,18.305,-38.550,40.153
-2.000,0.985,0.608,53.832,-41.443,160.718
-1.278,0.582,0.493,68.214,-36.336,216.298
-0.577,0.443,0.383,75.130,-28.695,212.176
-0.238,0.435,0.239,68.504,-10.458,174.649
-0.214,0.497,0.169,56.809,5.557,138.427
-0.353,0.586,0.115,49.344,21.504,115.870
-0.488,0.688,0.072,39.191,35.130,110.031
-0.561,0.756,0.034,25.038,46.740,115.557
-0.558,0.813,0.032,7.099,53.382,123.908
-0.547,0.836,0.118,-8.595,57.565,132.527
-0.525,0.844,0.226,-14.214,55.000,144.710
-0.417,0.819,0.304,-10.977,51.015,154.412
-0.324,0.806,0.316,-5.870,44.382,159.794
-0.181,0.805,0.286,-3.206,42.511,162.176
-0.076,0.789,0.258,-2.420,41.023,156.802
-0.034,0.807,0.209,-5.695,41.687,147.962
0.008,0.772,0.292,-6.374,41.901,140.313
0.083,0.781,0.163,-15.954,41.405,137.954
0.116,0.816,0.231,-19.863,34.336,121.863
0.099,0.842,0.219,-21.824,31.580,114.885
0.135,0.850,0.274,-22.443,30.221,112.290
0.193,0.843,0.312,-17.695,27.389,104.786
0.238,0.845,0.290,-14.534,25.916,91.908
0.219,0.881,0.287,-14.718,24.481,81.809
0.220,0.887,0.305,-13.038,24.450,75.137
0.228,0.885,0.324,-10.672,22.641,69.084
0.217,0.894,0.318,-8.672,20.511,62.939
0.254,0.896,0.319,-6.802,18.756,59.435
0.291,0.880,0.314,-3.962,16.824,52.885
0.327,0.876,0.293,-2.061,15.405,45.160
0.320,0.880,0.266,-2.420,14.771,36.611
0.309,0.885,0.256,-4.084,13.855,30.092
0.306,0.886,0.268,-4.794,14.336,25.611
0.311,0.887,0.262,-5.603,13.481,20.794
0.295,0.888,0.282,-6.496,11.595,15.756
0.260,0.895,0.311,-5.870,7.420,12.817
0.266,0.908,0.309,-3.855,4.107,11.733

0.696,0.831,0.289,5.542,29.244,-44.595
0.851,0.744,0.269,13.496,50.847,-84.916
0.727,0.683,0.231,13.153,55.046,-138.939
0.519,0.715,0.218,4.160,28.374,-168.229
0.576,0.674,0.255,-5.137,6.420,-190.679
0.696,0.489,0.336,-4.290,-13.893,-229.962
0.810,0.351,0.323,-3.939,-35.397,-250.137
0.472,0.242,0.225,-9.504,-44.626,-250.137
0.075,0.223,0.153,-20.481,-46.618,-250.137
-0.211,0.213,0.160,-32.870,-42.802,-250.137
-0.538,0.259,0.399,-40.916,-26.099,-250.137
-1.001,0.456,0.628,-31.244,-6.611,-250.137
-1.673,0.760,0.811,-4.901,0.702,-250.137
-2.000,1.106,0.781,31.282,-14.412,-215.198
-2.000,1.299,0.575,56.267,-42.351,-72.351
-2.000,1.236,0.337,53.534,-43.336,78.305
-1.803,0.959,0.443,52.443,-22.901,159.679
-1.322,0.723,0.523,67.893,-12.481,204.634
-0.928,0.633,0.410,78.153,-2.695,221.679
-0.675,0.542,0.290,80.084,4.046,226.725
-0.459,0.495,0.183,76.542,6.878,223.466
-0.233,0.471,0.069,68.366,16.168,208.031
-0.087,0.512,-0.053,54.679,32.626,181.847
-0.013,0.581,-0.124,31.977,43.794,152.298
0.001,0.677,-0.114,4.618,48.718,125.038
-0.167,0.788,-0.038,-13.985,59.382,106.847
-0.265,0.870,0.041,-27.511,60.008,107.786
-0.283,0.887,0.175,-31.550,55.206,113.855
-0.244,0.888,0.217,-31.588,46.489,122.023
-0.132,0.871,0.230,-32.023,42.038,128.099
-0.019,0.842,0.273,-32.229,38.695,125.298
0.022,0.848,0.282,-30.153,35.763,117.168
0.062,0.872,0.243,-29.786,34.153,118.718
0.145,0.855,0.289,-26.084,29.634,105.740
0.148,0.866,0.295,-25.206,23.664,97.435
0.185,0.873,0.322,-22.092,19.885,92.359
0.215,0.862,0.314,-15.733,16.031,84.275
0.260,0.858,0.278,-12.855,14.611,73.542
0.309,0.869,0.240,-14.137,15.885,63.687
0.349,0.854,0.261,-16.489,16.458,50.099
0.299,0.882,0.329,-15.695,11.687,36.305
0.261,0.906,0.332,-10.473,8.542,30.748
0.262,0.901,0.302,-9.099,4.863,25.069
0.267,0.897,0.303,-10.137,4.405,16.160
0.240,0.901,0.334,-9.107,5.901,8.695
0.209,0.903,0.354,-7.389,5.634,2.870
0.162,0.928,0.376,-3.298,2.107,0.511
0.116,0.928,0.360,0.527,0.702,0.756
0.109,0.925,0.327,2.473,-0.046,1.771
0.094,0.937,0.308,2.534,1.611,3.214

0.710,0.757,0.392,3.321,-11.733,-37.160
1.123,0.618,0.420,10.511,-30.267,-101.420
1.380,0.454,0.271,3.534,-56.901,-198.328
1.257,0.287,0.135,-19.817,-76.542,-250.137
0.966,0.083,0.182,-45.710,-75.183,-250.137
0.564,-0.119,0.437,-53.634,-74.573,-250.137
0.161,-0.142,0.660,-36.947,-47.756,-250.137
-0.289,-0.008,0.749,-3.496,-16.870,-250.137
-1.004,0.185,0.615,19.298,-7.779,-250.137
-1.913,0.558,0.399,13.794,-34.550,-250.137
-2.000,0.968,0.194,-16.641,-71.481,-250.137
-2.000,1.294,0.298,-38.595,-76.908,-138.573
-2.000,1.236,0.689,-6.985,-65.893,17.450
-1.844,0.965,0.603,39.786,-30.542,111.115
-1.295,0.656,0.361,54.046,-1.695,161.794
-0.778,0.535,0.277,51.794,14.748,172.702
-0.579,0.489,0.204,43.473,27.511,162.588
-0.599,0.533,0.193,32.267,40.527,154.084
-0.634,0.583,0.187,23.023,49.405,157.260
-0.537,0.616,0.155,9.038,54.214,160.878
-0.442,0.659,0.168,-6.435,57.588,157.366
-0.427,0.736,0.256,-20.786,58.527,153.702
-0.420,0.783,0.382,-26.160,58.893,156.099
-0.375,0.796,0.484,-21.145,51.763,160.985
-0.307,0.787,0.483,-11.351,42.298,166.221
-0.195,0.767,0.443,-4.840,33.756,166.534
-0.064,0.754,0.369,-5.092,27.580,164.221
0.057,0.755,0.357,-6.977,26.489,153.153
0.101,0.773,0.366,-4.473,24.763,139.053
0.111,0.799,0.334,-1.298,22.847,129.115
0.279,0.764,0.302,-0.321,22.656,115.840
0.268,0.751,0.323,-5.298,26.344,103.588
0.218,0.833,0.350,-2.534,19.863,86.557
0.181,0.870,0.306,1.809,17.939,81.931
0.213,0.855,0.290,0.153,16.992,77.160
0.261,0.849,0.283,-1.053,13.420,67.672
0.271,0.855,0.275,-4.153,11.466,54.634
0.222,0.873,0.304,-6.366,13.527,46.634
0.199,0.888,0.347,-3.916,13.817,41.779
0.207,0.894,0.335,-0.618,11.901,39.206
0.229,0.888,0.323,-1.160,8.206,32.000
0.236,0.882,0.339,-3.244,5.863,25.557
0.236,0.881,0.341,-2.939,3.931,17.481
0.219,0.884,0.348,-1.382,3.115,10.031
0.174,0.904,0.327,0.328,4.321,4.916
0.160,0.910,0.322,0.328,5.473,1.931
0.124,0.915,0.311,-0.595,6.374,0.275
0.089,0.915,0.321,-0.969,4.366,0.939
0.077,0.916,0.320,-0.183,4.260,3.519
0.081,0.917,0.320,1.191,4.069,5.321

0.592,0.828,0.419,4.145,6.603,-22.382
0.900,0.626,0.537,19.702,-0.305,-59.443
1.514,0.517,0.419,25.092,-22.053,-151.435
1.409,0.310,0.232,10.107,-48.053,-250.137
0.963,0.214,0.112,-24.450,-73.351,-250.137
0.401,0.265,0.249,-49.550,-74.305,-250.137
0.154,0.185,0.396,-43.168,-72.305,-250.137
0.017,0.163,0.357,-28.511,-48.000,-250.137
-0.328,0.163,0.324,-26.366,-15.443,-250.137
-0.811,0.354,0.478,-20.992,5.664,-250.137
-1.429,0.614,0.492,-9.992,2.893,-250.137
-2.000,0.888,0.480,-13.115,-12.855,-250.137
-2.000,1.112,0.643,-6.817,-32.733,-148.725
-2.000,1.162,0.706,24.427,-41.130,-19.870
-1.941,1.057,0.537,50.008,-23.817,80.969
-1.534,0.791,0.453,60.008,-1.985,146.847
-1.046,0.649,0.393,66.947,10.588,180.298
-0.755,0.540,0.297,63.580,22.718,187.420
-0.604,0.521,0.250,54.397,27.725,184.183
-0.499,0.536,0.223,46.443,30.405,177.939
-0.418,0.572,0.180,36.924,32.183,168.870
-0.352,0.618,0.126,23.992,35.718,158.504
-0.277,0.673,0.098,7.176,40.145,146.756
-0.240,0.743,0.151,-6.794,44.847,136.763
-0.244,0.790,0.219,-12.527,48.412,131.916
-0.268,0.808,0.263,-14.122,47.847,131.863
-0.249,0.816,0.304,-14.641,42.710,133.466
-0.200,0.832,0.321,-11.817,35.962,134.382
-0.096,0.816,0.297,-9.000,31.328,135.023
0.017,0.817,0.263,-10.298,29.382,128.328
0.075,0.817,0.262,-12.947,29.817,117.893
0.082,0.823,0.312,-12.588,28.252,108.092
0.053,0.889,0.296,-13.160,22.779,104.115
0.210,0.828,0.295,-10.382,20.947,85.198
0.150,0.850,0.307,-10.695,15.076,74.611
0.118,0.895,0.292,-10.328,13.870,73.260
0.134,0.886,0.313,-7.046,13.641,68.740
0.171,0.867,0.300,-4.763,12.099,60.626
0.176,0.895,0.270,-4.809,13.634,54.023
0.188,0.882,0.294,-6.382,14.099,46.771
0.206,0.880,0.317,-5.863,11.649,37.443
0.180,0.899,0.319,-5.344,8.504,30.534
0.160,0.907,0.320,-4.351,4.779,27.176
0.166,0.900,0.311,-4.023,3.565,23.443
0.167,0.896,0.316,-5.817,5.046,17.695
0.148,0.896,0.350,-6.947,6.412,12.885
0.103,0.926,0.388,-3.985,4.924,11.084
0.087,0.929,0.400,0.695,3.084,11.275
0.087,0.934,0.369,3.855,1.328,11.595
0.086,0.932,0.372,6.290,1.504,12.405

0.720,0.769,0.346,0.802,5.489,-3.389
1.601,0.537,0.490,15.733,2.298,-57.122
2.000,0.326,0.362,26.809,3.168,-196.397
1.724,0.133,0.052,12.985,7.840,-250.137
0.814,-0.021,-0.097,-31.832,5.260,-250.137
0.428,-0.024,0.125,-67.176,-30.641,-250.137
0.208,-0.136,0.376,-58.344,-51.031,-250.137
0.036,-0.324,0.280,-41.328,-38.221,-250.137
-0.487,-0.215,0.380,-30.458,14.267,-250.137
-1.467,0.236,0.579,-18.374,41.863,-250.137
-2.000,0.808,0.586,-24.641,-16.672,-250.137
-2.000,1.352,0.538,-25.908,-83.382,-209.351
-2.000,1.423,0.715,6.481,-78.115,-1.626
-2.000,1.133,0.673,59.947,-47.802,139.000
-1.496,0.680,0.461,89.458,-11.985,199.656
-0.833,0.531,0.288,95.435,12.695,216.664
-0.479,0.458,0.163,79.542,26.885,197.313
-0.434,0.478,0.153,60.237,27.763,172.015
-0.439,0.568,0.125,48.313,24.679,156.809
-0.460,0.614,0.088,36.305,25.244,149.885
-0.472,0.658,0.066,23.466,25.481,148.901
-0.421,0.703,0.050,11.000,27.809,148.183
-0.356,0.751,0.062,-0.740,31.817,146.740
-0.274,0.794,0.087,-11.756,39.840,143.008
-0.261,0.822,0.183,-20.458,42.466,139.015
-0.292,0.845,0.269,-21.206,40.237,139.634
-0.211,0.840,0.333,-16.229,34.450,142.817
-0.191,0.839,0.338,-9.809,26.382,145.107
-0.097,0.838,0.291,-6.023,21.908,145.962
-0.019,0.823,0.255,-6.679,19.466,142.466
0.083,0.807,0.219,-10.275,18.374,135.420
0.135,0.827,0.220,-11.985,19.595,125.206
0.164,0.836,0.239,-11.443,24.229,116.359
0.179,0.830,0.249,-10.634,25.214,107.832
0.171,0.912,0.212,-12.153,22.084,100.580
0.274,0.824,0.310,-12.588,20.969,89.206
0.263,0.847,0.302,-9.588,12.198,76.107
0.246,0.871,0.237,-11.588,10.015,70.580
0.289,0.863,0.263,-11.710,13.282,61.626
0.295,0.858,0.292,-10.160,14.771,48.962
0.272,0.880,0.313,-9.122,13.160,41.756
0.263,0.879,0.331,-6.832,10.756,36.443
0.256,0.875,0.319,-5.137,6.954,29.885
0.260,0.881,0.313,-6.336,6.107,23.046
0.244,0.894,0.341,-6.786,6.863,18.947
0.238,0.900,0.356,-5.504,5.237,13.023
0.229,0.909,0.355,-5.359,2.519,8.656
0.238,0.900,0.364,-5.885,0.794,3.130
0.219,0.901,0.382,-5.000,0.504,-2.969
0.174,0.923,0.389,-1.153,-0.855,-6.542

0.707,0.810,0.290,12.794,-17.489,-15.344
1.473,0.575,0.372,26.786,-40.885,-78.626
2.000,0.386,0.173,16.740,-77.725,-206.260
1.705,0.121,-0.088,-11.786,-77.786,-250.137
0.955,-0.010,-0.049,-41.504,-52.450,-250.137
0.403,-0.172,0.145,-46.756,-43.458,-250.137
0.023,-0.216,0.278,-42.473,-27.885,-250.137
-0.532,-0.090,0.437,-21.611,-14.969,-250.137
-1.216,0.256,0.292,-2.595,-14.084,-250.137
-2.000,0.735,0.119,-19.603,-15.740,-250.137
-2.000,1.180,0.179,-46.061,-37.313,-250.137
-2.000,1.413,0.353,-46.344,-43.695,-107.206
-2.000,1.323,0.574,-4.580,-22.160,53.450
-1.632,1.010,0.493,32.435,8.046,135.710
-1.168,0.799,0.395,50.779,20.000,178.718
-0.710,0.653,0.278,53.588,24.450,195.053
-0.437,0.600,0.202,45.031,24.580,186.786
-0.409,0.626,0.201,38.656,27.863,171.221
-0.479,0.708,0.177,35.305,34.634,167.519
-0.496,0.731,0.129,27.855,39.931,172.901
-0.421,0.729,0.114,14.885,38.840,176.290
-0.292,0.734,0.116,-1.145,36.992,176.519
-0.166,0.747,0.164,-13.122,33.718,168.053
-0.103,0.775,0.232,-18.794,30.916,158.672
-0.036,0.785,0.276,-15.885,26.725,149.214
0.054,0.795,0.285,-12.557,21.870,137.756
0.114,0.791,0.266,-7.969,19.687,121.076
0.133,0.823,0.238,-7.130,17.214,105.351
0.149,0.852,0.231,-5.748,17.130,91.702
0.156,0.867,0.238,-4.748,15.527,77.511
0.107,0.897,0.228,-2.389,14.405,66.733
0.079,0.911,0.201,-0.656,14.985,60.802
-0.034,0.984,0.222,-1.924,15.733,60.328
0.142,0.904,0.173,-8.588,15.275,51.412
0.051,0.953,0.238,-8.870,10.733,44.053
0.035,0.956,0.234,-7.084,13.672,48.260
0.096,0.935,0.252,-4.298,11.550,48.412
0.110,0.926,0.251,-2.702,10.061,42.916
0.097,0.954,0.229,-0.863,9.626,43.305
0.125,0.937,0.213,-1.099,11.282,42.237
0.116,0.941,0.224,-0.870,11.031,40.267
0.120,0.927,0.206,-1.084,10.748,40.046
0.137,0.934,0.217,-1.053,9.695,39.916
0.151,0.935,0.198,-1.954,7.290,39.794
0.208,0.917,0.189,-3.939,6.336,38.031
0.233,0.916,0.191,-6.229,7.275,33.519
0.224,0.921,0.224,-7.664,5.748,29.031
0.209,0.933,0.246,-6.374,5.901,26.229
0.197,0.926,0.238,-5.527,5.260,24.771
0.189,0.927,0.231,-5.435,6.458,24.176

0.756,0.759,0.314,-1.756,-18.435,-31.099
1.374,0.620,0.329,-0.779,-49.687,-95.504
1.789,0.443,0.229,-13.443,-68.740,-220.855
1.368,0.207,0.094,-30.313,-63.618,-250.137
0.898,0.031,0.099,-47.336,-49.458,-250.137
0.589,-0.094,0.232,-55.328,-50.397,-250.137
0.406,-0.218,0.298,-49.786,-38.473,-250.137
-0.042,-0.188,0.465,-31.573,1.214,-250.137
-0.844,0.086,0.577,-3.504,33.725,-250.137
-1.823,0.550,0.470,7.519,27.153,-250.137
-2.000,1.065,0.290,-3.298,-9.397,-250.137
-2.000,1.418,0.292,-15.756,-46.870,-155.298
-2.000,1.422,0.479,0.786,-49.885,18.046
-1.820,1.080,0.504,35.908,-15.687,129.908
-1.178,0.745,0.434,62.092,10.595,178.153
-0.594,0.579,0.288,70.458,13.817,190.626
-0.176,0.495,0.164,56.817,9.450,158.618
-0.238,0.574,0.147,44.718,6.649,119.031
-0.479,0.703,0.112,40.832,8.687,107.511
-0.620,0.775,0.030,35.267,16.252,117.519
-0.647,0.824,-0.001,26.237,29.794,132.206
-0.616,0.825,-0.004,10.115,42.214,147.779
-0.447,0.799,0.040,-11.099,50.565,157.160
-0.333,0.792,0.194,-22.511,46.718,157.443
-0.289,0.800,0.284,-21.947,38.260,159.954
-0.147,0.798,0.302,-15.985,30.229,157.802
-0.076,0.793,0.271,-10.458,26.702,150.656
0.008,0.816,0.226,-10.786,27.679,141.053
0.050,0.822,0.240,-14.550,27.176,128.916
0.067,0.849,0.267,-12.450,24.947,117.603
0.102,0.871,0.267,-8.275,20.779,107.885
0.117,0.875,0.245,-6.305,18.282,100.557
0.140,0.911,0.153,-8.870,12.809,89.511
0.188,0.889,0.166,-10.450,13.656,84.038
0.268,0.849,0.232,-8.244,15.489,64.611
0.172,0.920,0.198,-5.389,16.275,59.527
0.203,0.915,0.215,-5.878,17.901,53.824
0.208,0.905,0.221,-5.366,13.389,47.496
0.194,0.924,0.218,-5.870,9.313,42.397
0.196,0.925,0.229,-6.427,5.443,39.641
0.185,0.931,0.248,-4.389,2.046,36.710
0.169,0.934,0.221,-3.008,0.992,36.153
0.191,0.923,0.198,-3.969,4.870,35.267
0.213,0.921,0.216,-6.053,9.000,31.565
0.210,0.915,0.244,-7.252,11.122,28.351
0.211,0.918,0.269,-7.069,7.985,25.763
0.201,0.928,0.278,-5.878,5.229,23.573
0.186,0.935,0.286,-4.374,3.435,22.252
0.197,0.938,0.287,-2.336,4.053,20.122
0.168,0.945,0.291,0.733,6.489,18.534

0.833,0.691,0.352,-8.542,-35.099,-39.145
1.716,0.461,0.342,-22.122,-94.496,-140.351
1.796,0.375,0.140,-50.183,-125.053,-250.137
1.421,0.075,0.113,-71.855,-107.023,-250.137
0.976,-0.059,0.322,-70.290,-83.718,-250.137
0.355,-0.084,0.262,-41.779,-39.130,-250.137
-0.096,-0.136,0.253,-17.756,12.122,-250.137
-0.702,0.039,0.337,-2.252,56.122,-250.137
-1.841,0.531,0.291,-6.725,38.786,-250.137
-2.000,0.982,0.203,-34.298,-7.359,-250.137
-2.000,1.292,0.348,-48.649,-38.908,-188.382
-2.000,1.381,0.578,-28.542,-47.359,-29.260
-1.842,1.175,0.621,10.947,-23.641,76.382
-1.326,0.921,0.537,41.641,-1.046,128.611
-0.976,0.738,0.401,55.336,6.145,157.771
-0.630,0.639,0.296,54.427,6.382,166.336
-0.361,0.593,0.199,44.420,8.244,155.160
-0.263,0.593,0.177,33.527,15.305,131.015
-0.382,0.694,0.172,26.290,22.809,112.321
-0.522,0.775,0.183,22.679,30.794,109.702
-0.583,0.840,0.154,16.763,37.366,116.992
-0.613,0.850,0.151,5.290,37.687,130.595
-0.518,0.850,0.198,-4.145,38.137,141.046
-0.477,0.833,0.261,-4.985,36.985,151.672
-0.415,0.845,0.290,0.282,39.038,161.542
-0.398,0.844,0.274,2.847,37.916,173.229
-0.306,0.826,0.272,3.099,36.008,180.786
-0.203,0.806,0.247,2.427,31.809,188.748
-0.027,0.769,0.201,1.168,34.985,187.176
0.157,0.734,0.194,-6.176,32.855,175.061
0.280,0.742,0.222,-11.099,29.229,154.901
0.309,0.781,0.247,-7.901,29.351,132.595
0.413,0.784,0.149,-3.313,28.176,112.527
0.338,0.835,0.215,-3.260,30.511,104.191
0.385,0.812,0.241,-1.595,30.267,83.298
0.291,0.883,0.213,-2.481,24.878,73.458
0.256,0.903,0.242,-2.908,24.885,67.771
0.264,0.890,0.252,-0.176,20.893,63.366
0.284,0.896,0.240,-0.466,17.366,56.405
0.261,0.911,0.257,-1.908,14.725,53.000
0.307,0.903,0.279,1.214,13.733,48.282
0.299,0.906,0.258,3.908,15.153,41.695
0.296,0.909,0.248,3.206,15.908,37.267
0.322,0.903,0.240,2.878,15.924,33.046
0.330,0.909,0.240,3.046,13.420,27.573
0.324,0.911,0.245,3.817,9.198,23.031
0.323,0.911,0.220,5.382,7.473,20.099
0.313,0.894,0.194,4.519,6.473,16.290
0.307,0.906,0.189,2.954,7.527,12.687
0.277,0.909,0.197,1.695,6.908,11.023

0.787,0.726,0.316,-1.336,-17.267,-38.122
1.411,0.621,0.276,1.794,-33.939,-105.786
1.544,0.469,0.147,-8.748,-43.649,-207.527
1.205,0.390,0.130,-27.023,-42.160,-250.137
0.840,0.285,0.219,-34.130,-45.802,-250.137
0.689,0.093,0.256,-29.374,-52.321,-250.137
0.525,-0.103,0.208,-24.031,-50.176,-250.137
0.111,-0.129,0.198,-28.412,-28.122,-250.137
-0.531,0.059,0.320,-24.511,-7.153,-250.137
-1.382,0.435,0.368,-27.718,5.573,-250.137
-2.000,0.919,0.371,-33.824,-2.206,-250.137
-2.000,1.321,0.369,-37.397,-27.275,-211.794
-2.000,1.466,0.559,-25.511,-42.588,-33.870
-2.000,1.286,0.663,14.618,-26.145,100.847
-1.580,0.905,0.595,50.435,-0.969,175.183
-0.917,0.661,0.408,65.603,6.023,207.939
-0.422,0.540,0.253,60.374,9.611,201.740
-0.146,0.502,0.201,45.878,5.237,168.908
-0.159,0.565,0.179,38.809,4.985,134.023
-0.291,0.681,0.108,33.237,12.336,113.351
-0.438,0.774,0.060,26.840,24.031,109.588
-0.528,0.833,0.015,14.511,36.282,114.809
-0.527,0.867,0.035,-0.160,47.611,125.489
-0.498,0.877,0.151,-17.023,51.092,135.519
-0.452,0.854,0.314,-18.595,44.137,146.794
-0.333,0.819,0.378,-10.473,32.244,156.504
-0.164,0.792,0.312,-2.183,25.183,155.718
-0.098,0.811,0.257,-2.435,24.901,150.687
-0.048,0.835,0.263,0.214,27.237,144.908
-0.009,0.836,0.228,1.603,27.534,139.496
0.031,0.831,0.193,-0.473,25.878,133.542
0.073,0.841,0.191,-5.618,22.763,124.878
0.061,0.859,0.232,-6.038,18.229,119.550
0.084,0.877,0.226,-1.710,15.214,119.038
0.187,0.803,0.240,0.779,17.198,115.000
0.187,0.852,0.194,-2.832,18.809,113.046
0.186,0.875,0.204,-4.053,16.382,105.733
0.245,0.867,0.165,-9.008,17.275,104.374
0.338,0.853,0.214,-11.550,19.069,94.145
0.355,0.857,0.256,-9.710,19.878,81.847
0.361,0.869,0.279,-6.435,18.420,72.695
0.378,0.873,0.279,-3.305,16.595,63.794
0.390,0.885,0.280,-2.550,13.351,54.168
0.366,0.891,0.297,-1.969,9.809,46.420
0.354,0.897,0.292,0.947,6.221,42.351
0.395,0.885,0.276,2.863,6.931,36.931
0.395,0.885,0.263,4.115,8.351,30.397
0.407,0.875,0.267,5.382,9.878,24.092
0.390,0.879,0.250,6.756,8.015,17.519
0.376,0.882,0.229,7.015,4.305,12.504

0.863,0.704,0.306,-6.870,-29.122,-54.817
1.454,0.613,0.287,-7.847,-49.466,-135.786
1.488,0.408,0.134,-28.313,-72.580,-246.084
1.073,0.349,0.096,-48.725,-64.008,-250.137
0.497,0.221,0.269,-55.603,-62.901,-250.137
0.410,0.155,0.209,-51.130,-61.695,-250.137
0.212,0.065,0.167,-46.389,-43.198,-250.137
-0.094,0.068,0.184,-49.145,-15.550,-250.137
-0.679,0.321,0.448,-40.015,33.977,-250.137
-1.508,0.674,0.560,-24.893,40.053,-250.137
-2.000,1.102,0.559,-18.992,10.763,-250.137
-2.000,1.367,0.552,-4.153,-38.977,-92.916
-2.000,1.315,0.582,15.733,-43.771,45.046
-1.824,1.102,0.532,39.855,-10.374,143.023
-1.351,0.810,0.537,62.718,3.397,208.649
-0.792,0.624,0.365,72.527,6.374,235.947
-0.435,0.553,0.249,67.206,10.626,231.229
-0.307,0.557,0.203,60.481,15.038,212.656
-0.283,0.613,0.100,51.893,23.397,198.221
-0.294,0.681,0.027,38.145,36.122,189.389
-0.250,0.719,0.018,16.954,48.260,183.870
-0.199,0.731,0.090,-3.725,50.275,177.191
-0.149,0.760,0.181,-16.183,43.931,170.466
-0.095,0.777,0.259,-16.527,36.756,169.702
0.031,0.765,0.278,-12.153,31.435,164.527
0.157,0.760,0.238,-10.115,32.107,153.053
0.196,0.796,0.212,-10.519,32.733,140.947
0.265,0.808,0.221,-13.053,32.412,127.695
0.324,0.825,0.240,-12.198,29.771,111.351
0.346,0.837,0.265,-10.687,26.275,93.901
0.301,0.872,0.279,-6.099,23.275,79.611
0.285,0.894,0.269,-1.710,21.802,73.824
0.344,0.804,0.335,2.244,22.015,64.618
0.357,0.845,0.259,-1.252,21.313,60.527
0.380,0.862,0.276,-2.260,17.435,45.198
0.316,0.905,0.235,-3.878,14.252,40.427
0.311,0.898,0.282,-2.817,10.160,36.046
0.360,0.894,0.270,-1.366,6.336,29.870
0.349,0.896,0.255,0.176,5.992,22.053
0.351,0.897,0.245,-0.015,7.954,16.573
0.346,0.895,0.247,-0.901,9.580,8.420
0.259,0.921,0.272,-0.473,8.366,4.290
0.221,0.936,0.273,1.153,5.863,5.916
0.244,0.925,0.257,2.847,4.015,6.519
0.256,0.919,0.244,2.618,1.725,5.160
0.260,0.915,0.245,2.168,1.992,2.168
0.233,0.918,0.239,3.809,2.260,1.573
0.221,0.923,0.214,4.237,3.687,2.206
0.202,0.925,0.203,1.924,4.008,2.229
0.179,0.930,0.213,1.061,4.985,4.695

0.857,0.692,0.287,-6.015,-23.649,-53.069
1.304,0.529,0.300,-13.649,-58.687,-123.061
1.516,0.496,0.124,-28.779,-69.863,-220.282
1.276,0.360,0.050,-36.832,-20.023,-250.137
0.865,0.166,0.125,-28.878,10.588,-250.137
0.546,0.020,0.224,-18.176,10.824,-250.137
0.282,-0.096,0.261,-16.275,8.656,-250.137
-0.260,-0.035,0.425,-13.244,7.855,-250.137
-1.059,0.297,0.454,-0.824,-4.214,-250.137
-1.911,0.760,0.326,-11.275,-16.565,-250.137
-2.000,1.139,0.374,-25.542,-29.847,-250.137
-2.000,1.414,0.463,-22.718,-52.031,-118.626
-2.000,1.468,0.581,-4.359,-49.061,28.992
-2.000,1.192,0.687,38.473,-22.496,154.832
-1.508,0.846,0.586,75.046,-14.198,238.000
-0.885,0.596,0.323,83.481,-5.687,250.130
-0.549,0.500,0.215,74.969,-0.458,250.130
-0.344,0.453,0.148,65.947,7.282,250.130
-0.107,0.454,0.035,52.672,19.580,242.145
0.033,0.536,0.000,42.344,49.939,207.939
0.050,0.618,-0.041,22.244,57.168,188.214
0.105,0.667,-0.007,-9.924,50.794,164.435
0.106,0.752,0.143,-22.137,46.977,137.939
0.001,0.825,0.229,-22.580,38.626,129.115
0.037,0.860,0.246,-19.779,33.664,125.489
0.058,0.867,0.250,-18.046,30.237,121.847
0.104,0.851,0.270,-14.336,31.893,115.893
0.136,0.874,0.249,-13.802,28.458,112.015
0.218,0.875,0.273,-10.267,27.809,107.244
0.277,0.861,0.271,-8.466,21.084,97.489
0.336,0.858,0.265,-7.481,15.061,85.237
0.361,0.867,0.260,-4.908,12.229,73.924
0.373,0.875,0.250,-2.557,14.145,61.603
0.352,0.893,0.241,-0.626,16.695,51.405
0.333,0.896,0.247,0.534,18.710,46.015
0.315,0.891,0.249,0.145,16.405,39.176
0.293,0.907,0.264,-0.855,11.450,35.053
0.283,0.909,0.261,-1.069,4.458,32.405
0.326,0.898,0.251,-0.656,-0.679,28.542
0.369,0.886,0.235,-0.679,1.947,19.924
0.343,0.897,0.248,1.359,8.160,11.366
0.301,0.912,0.256,4.992,12.282,7.206
0.248,0.919,0.227,5.931,11.000,5.221
0.176,0.934,0.209,2.908,7.443,8.435
0.190,0.933,0.216,-0.611,5.756,12.809
0.216,0.931,0.253,-0.740,3.931,13.695
0.259,0.921,0.246,0.473,4.427,11.985
0.265,0.920,0.244,2.344,5.046,9.405
0.248,0.916,0.242,3.962,6.740,7.649
0.221,0.925,0.212,4.450,7.977,7.947

0.865,0.658,0.314,-13.305,-26.267,-53.305
1.517,0.508,0.353,-13.962,-47.183,-141.458
1.515,0.456,0.137,-18.366,-49.176,-250.137
1.123,0.333,0.000,-44.267,-38.656,-250.137
0.683,0.184,0.281,-55.939,-50.000,-250.137
0.448,0.071,0.365,-43.893,-52.710,-250.137
0.172,0.041,0.419,-32.992,-38.130,-250.137
-0.316,0.134,0.579,-13.511,-0.702,-250.137
-1.140,0.465,0.564,11.641,18.198,-250.137
-2.000,0.873,0.348,16.527,4.962,-250.137
-2.000,1.208,0.287,3.855,-25.878,-219.427
-2.000,1.320,0.403,-0.679,-44.046,-73.008
-2.000,1.251,0.519,23.718,-25.931,39.939
-1.671,1.029,0.461,47.275,-1.511,117.916
-1.200,0.810,0.386,61.611,3.244,169.420
-0.771,0.644,0.259,67.023,4.328,190.076
-0.529,0.598,0.137,58.351,9.405,188.397
-0.388,0.596,0.083,46.466,13.748,179.153
-0.251,0.610,0.004,32.412,22.931,164.679
-0.200,0.679,0.014,16.863,35.412,148.916
-0.186,0.738,0.059,2.748,45.656,134.565
-0.224,0.799,0.127,-7.725,47.603,126.840
-0.261,0.845,0.200,-12.725,43.458,125.336
-0.219,0.847,0.280,-13.260,37.611,127.947
-0.156,0.830,0.328,-10.275,33.496,125.084
-0.080,0.836,0.298,-6.710,30.015,118.466
-0.075,0.871,0.233,-3.985,29.168,116.473
-0.019,0.873,0.185,-5.595,31.519,114.382
0.026,0.876,0.207,-7.443,30.321,110.412
0.072,0.878,0.224,-7.336,27.832,104.496
0.081,0.889,0.204,-6.542,28.031,99.763
0.093,0.894,0.193,-8.420,29.237,98.305
0.149,0.879,0.213,-11.992,29.145,93.733
0.160,0.897,0.245,-12.313,26.588,89.237
0.206,0.884,0.282,-10.511,23.725,84.786
0.185,0.904,0.300,-9.015,19.557,79.084
0.161,0.920,0.303,-5.053,13.435,80.092
0.240,0.903,0.278,-2.603,12.275,79.412
0.308,0.894,0.265,-1.588,16.908,72.580
0.314,0.888,0.271,0.023,21.382,63.916
0.305,0.896,0.295,1.656,19.908,58.550
0.338,0.899,0.291,5.382,15.061,52.168
0.309,0.897,0.280,7.771,6.908,47.084
0.284,0.900,0.253,7.809,2.183,45.115
0.330,0.898,0.210,7.832,3.458,43.550
0.381,0.880,0.200,6.985,8.954,36.992
0.406,0.875,0.201,6.275,11.046,28.779
0.399,0.884,0.211,5.130,9.405,20.427
0.400,0.886,0.190,2.954,7.557,12.878
0.357,0.891,0.191,0.870,6.672,7.038

0.845,0.682,0.350,-5.244,-33.145,-35.656
1.601,0.514,0.390,-6.382,-71.679,-127.626
1.726,0.369,0.085,-17.947,-80.962,-249.313
1.212,0.220,0.018,-51.115,-70.817,-250.137
0.857,0.159,0.244,-68.855,-84.412,-250.137
0.673,-0.046,0.307,-64.992,-87.061,-250.137
0.430,-0.139,0.382,-59.550,-50.565,-250.137
-0.439,0.047,0.640,-27.824,1.718,-250.137
-1.468,0.505,0.516,6.191,25.695,-250.137
-2.000,1.005,0.295,1.260,-0.763,-250.137
-2.000,1.361,0.230,-19.031,-37.496,-166.832
-2.000,1.390,0.534,-9.427,-33.840,-6.916
-1.899,1.166,0.573,28.267,-2.046,86.779
-1.434,0.907,0.414,45.450,14.069,158.779
-0.851,0.649,0.358,55.275,13.985,195.885
-0.363,0.524,0.247,55.962,9.511,193.672
-0.107,0.520,0.128,46.267,14.069,162.779
-0.065,0.574,0.071,32.321,21.725,128.695
-0.191,0.712,0.082,20.015,32.939,105.313
-0.344,0.815,0.102,7.473,42.206,99.710
-0.469,0.892,0.173,-4.450,47.420,106.153
-0.489,0.928,0.260,-9.855,47.511,119.687
-0.479,0.903,0.344,-9.687,42.496,135.405
-0.337,0.872,0.345,-6.771,35.344,147.962
-0.167,0.830,0.341,-1.931,29.466,149.695
-0.082,0.827,0.283,1.008,23.641,148.420
0.047,0.812,0.250,2.221,21.603,142.137
0.153,0.813,0.208,0.198,22.656,127.336
0.120,0.841,0.203,-0.595,22.634,113.687
0.110,0.865,0.186,-1.382,22.069,108.321
0.140,0.874,0.199,-2.321,19.733,101.908
0.199,0.868,0.197,-0.725,20.099,94.374
0.219,0.865,0.176,-2.214,22.076,84.641
0.223,0.888,0.200,-5.969,20.450,76.366
0.188,0.910,0.247,-6.237,17.435,70.832
0.136,0.916,0.259,-4.305,11.527,71.321
0.176,0.910,0.238,-4.099,8.267,71.893
0.260,0.896,0.237,-5.374,11.809,67.298
0.292,0.899,0.268,-5.794,15.771,58.023
0.270,0.899,0.299,-2.687,16.618,51.298
0.289,0.905,0.297,1.573,15.122,46.855
0.280,0.916,0.277,3.763,10.305,42.351
0.269,0.906,0.262,5.321,5.450,40.237
0.298,0.906,0.250,5.695,4.008,36.672
0.320,0.898,0.235,5.733,6.656,30.931
0.311,0.910,0.219,5.305,10.389,25.931
0.304,0.906,0.235,5.061,12.008,22.786
0.295,0.904,0.237,5.145,10.282,19.947
0.291,0.916,0.211,4.641,7.847,19.588
0.305,0.896,0.204,2.740,6.840,18.084

0.714,0.751,0.384,0.069,-14.275,-23.718
1.266,0.569,0.397,6.824,-52.061,-88.527
1.615,0.422,0.173,-11.595,-88.840,-217.786
1.267,0.346,0.053,-45.878,-93.099,-250.137
0.977,0.170,0.231,-63.618,-85.748,-250.137
0.748,0.030,0.362,-53.023,-83.847,-250.137
0.411,-0.153,0.211,-40.168,-49.031,-250.137
0.002,-0.157,0.320,-36.237,-9.847,-250.137
-0.694,0.075,0.463,-22.137,31.305,-250.137
-1.701,0.507,0.525,-11.092,45.221,-250.137
-2.000,1.031,0.499,-8.817,-1.733,-250.137
-2.000,1.406,0.502,-2.305,-52.870,-144.588
-2.000,1.382,0.529,25.832,-56.115,28.336
-1.956,1.109,0.432,53.542,-19.878,131.252
-1.445,0.808,0.411,73.206,3.046,198.405
-0.839,0.629,0.312,89.053,14.611,229.824
-0.482,0.517,0.146,83.939,20.924,225.252
-0.269,0.482,0.042,65.511,23.817,203.038
-0.200,0.535,0.010,45.664,26.084,176.038
-0.216,0.632,0.005,28.511,36.634,154.740
-0.235,0.729,-0.039,10.160,47.985,142.664
-0.322,0.812,0.047,-5.115,58.107,136.924
-0.384,0.862,0.154,-15.893,57.611,140.847
-0.377,0.863,0.250,-17.435,51.137,149.786
-0.268,0.836,0.282,-13.885,43.962,157.092
-0.153,0.809,0.270,-10.748,36.420,157.885
-0.035,0.810,0.242,-9.725,33.023,153.267
0.031,0.818,0.192,-11.160,32.985,148.916
0.082,0.832,0.210,-11.557,34.237,141.336
0.123,0.831,0.212,-12.786,32.534,132.908
0.192,0.837,0.216,-12.221,29.031,121.122
0.240,0.854,0.219,-10.924,26.641,109.794
0.280,0.861,0.203,-10.466,26.191,96.511
0.320,0.863,0.205,-10.664,25.023,82.458
0.325,0.857,0.246,-9.435,23.412,69.046
0.315,0.882,0.258,-8.496,24.214,62.679
0.305,0.895,0.252,-8.084,18.824,49.893
0.282,0.918,0.256,-7.473,18.107,45.267
0.301,0.913,0.281,-5.290,16.634,39.061
0.261,0.922,0.289,-2.359,14.573,33.336
0.261,0.930,0.283,0.718,12.809,31.962
0.285,0.910,0.259,2.702,11.427,27.588
0.267,0.918,0.243,3.160,9.672,22.969
0.274,0.918,0.240,2.809,9.893,20.496
0.284,0.910,0.239,3.168,9.305,16.336
0.256,0.923,0.207,3.985,8.634,14.748
0.277,0.908,0.198,1.916,8.076,12.000
0.255,0.914,0.205,-0.229,6.252,8.718
0.238,0.919,0.202,-0.435,7.397,8.443
0.221,0.917,0.212,-0.511,7.305,9.336

1.099,0.557,0.180,-54.641,-72.878,-147.031
1.257,0.463,0.256,-68.580,-88.374,-235.366
1.198,0.223,0.229,-75.336,-87.198,-250.137
1.005,0.002,0.304,-78.069,-67.893,-250.137
0.768,-0.164,0.369,-63.023,-21.519,-250.137
0.255,-0.270,0.485,-35.969,23.191,-250.137
-0.616,-0.071,0.596,-11.313,60.725,-250.137
-1.783,0.402,0.497,-1.084,42.321,-250.137
-2.000,0.927,0.303,-22.153,-15.977,-250.137
-2.000,1.298,0.365,-47.649,-52.160,-191.702
-2.000,1.402,0.696,-27.305,-40.122,-41.412
-2.000,1.272,0.763,30.786,-4.176,85.038
-1.755,0.975,0.528,58.038,17.588,168.252
-1.197,0.734,0.484,75.573,17.718,225.985
-0.682,0.555,0.339,85.542,15.939,243.557
-0.334,0.471,0.147,72.718,15.992,229.534
-0.194,0.502,0.050,51.603,22.802,201.504
-0.167,0.607,0.028,30.748,34.985,178.519
-0.200,0.689,0.072,13.809,48.664,163.015
-0.253,0.768,0.140,2.756,53.664,158.496
-0.272,0.797,0.234,-5.557,52.458,158.206
-0.232,0.815,0.309,-7.389,43.214,160.275
-0.145,0.810,0.343,-3.443,34.710,160.298
-0.118,0.824,0.335,1.473,29.092,159.038
-0.044,0.825,0.270,2.366,26.137,159.611
0.044,0.812,0.254,0.053,25.992,153.786
0.088,0.823,0.249,-1.779,25.435,149.557
0.137,0.825,0.270,0.519,25.107,142.893
0.197,0.822,0.258,2.885,22.305,136.855
0.278,0.817,0.246,2.420,20.412,126.221
0.319,0.829,0.262,3.847,21.206,111.557
0.298,0.852,0.243,6.763,22.092,101.542
0.342,0.860,0.218,7.427,21.550,93.794
0.396,0.844,0.218,5.244,20.511,83.122
0.396,0.858,0.227,3.511,19.588,70.977
0.384,0.875,0.245,3.519,17.504,61.237
0.393,0.871,0.259,4.504,15.389,51.557
0.380,0.882,0.251,6.031,11.160,42.855
0.395,0.883,0.238,6.550,10.168,34.878
0.394,0.883,0.219,5.374,11.084,26.191
0.356,0.895,0.231,4.435,9.885,19.771
0.336,0.901,0.240,5.084,8.153,17.504
0.344,0.897,0.221,5.443,7.733,14.092
0.311,0.907,0.205,4.435,7.756,13.267
0.329,0.895,0.192,3.298,8.496,11.794
0.336,0.899,0.197,1.718,7.489,8.809
0.333,0.905,0.204,0.473,5.076,7.153
0.335,0.904,0.215,0.420,5.206,5.725
0.325,0.900,0.220,0.305,3.511,4.130
0.315,0.905,0.209,0.893,4.008,3.282

0.847,0.674,0.298,-12.298,-61.718,-75.229
1.293,0.602,0.125,-43.763,-112.237,-154.435
1.395,0.547,0.037,-66.466,-106.847,-231.305
1.203,0.354,0.089,-76.565,-75.504,-250.137
0.760,0.219,0.213,-70.878,-42.015,-250.137
0.461,0.169,0.247,-63.687,-23.267,-250.137
0.291,0.106,0.254,-61.718,-5.252,-250.137
-0.105,0.182,0.369,-56.679,20.412,-250.137
-0.802,0.434,0.517,-40.443,40.137,-250.137
-1.665,0.839,0.571,-28.924,29.626,-250.137
-2.000,1.170,0.556,-21.916,-1.290,-226.740
-2.000,1.299,0.620,-8.038,-23.115,-91.130
-1.925,1.226,0.662,23.702,-28.191,19.489
-1.565,1.073,0.466,43.344,-7.656,97.695
-1.179,0.862,0.392,53.443,3.557,151.847
-0.825,0.714,0.314,62.672,10.618,181.511
-0.519,0.627,0.193,59.252,19.969,187.511
-0.345,0.614,0.129,45.069,30.634,175.359
-0.302,0.652,0.105,28.878,37.779,159.855
-0.286,0.738,0.139,12.710,41.031,149.092
-0.313,0.805,0.198,2.122,42.947,145.947
-0.298,0.822,0.267,-1.832,42.191,148.527
-0.226,0.825,0.278,-3.298,38.366,150.718
-0.118,0.821,0.289,-6.092,34.489,149.282
-0.062,0.815,0.307,-6.382,32.550,145.122
-0.041,0.847,0.315,-3.206,28.420,147.130
0.065,0.839,0.285,1.282,26.519,148.817
0.187,0.813,0.262,1.611,25.740,142.740
0.219,0.822,0.273,1.290,25.695,131.214
0.269,0.822,0.298,3.611,23.924,120.595
0.303,0.838,0.296,7.229,22.702,108.924
0.354,0.845,0.256,11.397,23.260,97.802
0.337,0.871,0.230,12.237,22.214,86.977
0.314,0.867,0.236,11.908,21.863,80.534
0.353,0.868,0.232,10.267,17.580,73.099
0.377,0.861,0.228,7.229,14.634,62.817
0.380,0.873,0.236,5.374,12.153,53.947
0.376,0.869,0.242,5.267,10.756,46.298
0.372,0.888,0.243,6.977,11.229,39.206
0.361,0.898,0.231,8.565,12.305,33.534
0.350,0.900,0.218,7.863,11.641,27.878
0.359,0.893,0.216,5.534,9.137,23.481
0.391,0.886,0.207,3.557,6.519,16.595
0.359,0.894,0.208,2.702,6.397,11.489
0.334,0.901,0.209,2.092,7.718,8.931
0.323,0.898,0.214,1.473,6.740,6.550
0.301,0.914,0.221,1.260,4.603,6.038
0.297,0.911,0.206,0.611,0.939,6.191
0.301,0.905,0.201,-0.038,3.527,7.153
0.313,0.900,0.206,-0.191,5.565,7.023

0.807,0.637,0.405,5.076,-47.450,-16.420
1.396,0.566,0.266,2.153,-95.718,-85.939
1.815,0.407,-0.028,-31.725,-118.710,-193.985
1.661,0.218,-0.083,-75.359,-111.069,-250.137
0.999,0.050,0.106,-97.557,-80.901,-250.137
0.447,-0.046,0.306,-84.458,-45.893,-250.137
0.056,-0.001,0.373,-61.298,-7.534,-250.137
-0.597,0.178,0.424,-44.969,33.840,-250.137
-1.490,0.605,0.476,-38.863,49.191,-250.137
-2.000,1.071,0.466,-36.351,23.863,-250.137
-2.000,1.415,0.525,-25.931,-10.740,-154.580
-2.000,1.405,0.651,-0.947,-23.962,2.382
-1.666,1.191,0.581,36.168,-2.687,108.519
-1.265,0.907,0.513,54.786,9.008,173.321
-0.686,0.715,0.443,68.840,5.679,204.901
-0.243,0.595,0.252,71.198,9.397,194.519
-0.080,0.615,0.107,55.794,20.099,162.023
-0.159,0.703,0.074,38.153,32.031,137.748
-0.312,0.806,0.087,24.420,42.084,130.916
-0.388,0.872,0.135,13.534,47.992,136.916
-0.389,0.872,0.191,6.504,47.382,147.534
-0.327,0.854,0.227,1.947,41.580,156.969
-0.208,0.824,0.240,0.191,36.473,161.931
-0.099,0.820,0.227,-1.756,31.519,161.901
0.003,0.797,0.233,-3.672,33.489,158.130
0.033,0.813,0.280,-3.954,33.565,153.450
0.059,0.838,0.265,-1.221,32.580,153.908
0.196,0.814,0.250,0.664,28.893,150.397
0.299,0.815,0.221,1.519,27.916,139.718
0.376,0.817,0.204,2.015,29.405,126.450
0.440,0.811,0.211,1.405,29.763,110.756
0.470,0.824,0.217,2.183,30.649,93.435
0.457,0.840,0.235,1.687,27.725,77.061
0.434,0.863,0.246,2.359,25.397,65.412
0.401,0.872,0.235,1.931,23.015,57.786
0.347,0.883,0.250,0.542,16.550,53.282
0.357,0.896,0.268,2.466,13.237,52.618
0.417,0.876,0.271,5.679,14.664,49.786
0.454,0.867,0.257,6.870,12.710,41.626
0.488,0.862,0.234,6.985,11.397,31.344
0.487,0.858,0.235,6.588,10.382,20.954
0.446,0.878,0.218,7.160,8.321,13.351
0.409,0.878,0.197,7.557,6.824,9.893
0.388,0.887,0.175,6.122,3.969,8.244
0.406,0.870,0.149,1.481,4.580,4.802
0.408,0.872,0.171,-2.534,5.015,-0.809
0.352,0.901,0.194,-2.427,4.313,-1.092
0.359,0.894,0.207,-2.000,3.351,-0.992
0.343,0.896,0.212,-2.550,2.969,-2.702
0.320,0.900,0.224,-1.977,2.168,-1.710

0.869,0.794,0.165,10.969,5.504,-17.718
1.104,0.657,0.172,15.489,2.595,-49.336
1.271,0.519,0.131,10.840,-10.336,-102.649
1.374,0.385,0.067,-13.557,-33.176,-175.267
1.328,0.292,0.120,-46.107,-62.275,-250.137
0.937,0.278,0.242,-63.817,-74.046,-250.137
0.618,0.200,0.315,-68.344,-77.382,-250.137
0.366,0.187,0.344,-63.366,-65.069,-250.137
0.017,0.269,0.409,-50.840,-39.214,-250.137
-0.365,0.402,0.489,-37.481,-12.763,-250.137
-0.938,0.647,0.605,-21.809,0.702,-250.137
-1.413,0.926,0.572,-2.084,-4.076,-250.137
-1.748,1.145,0.437,8.656,-17.931,-228.725
-1.815,1.231,0.406,8.435,-27.809,-134.092
-1.705,1.215,0.460,15.443,-30.084,-52.519
-1.486,1.155,0.468,31.275,-20.695,13.992
-1.256,1.059,0.387,43.527,-3.969,63.695
-1.037,0.913,0.339,50.954,5.038,101.313
-0.783,0.829,0.260,54.916,10.656,125.366
-0.607,0.775,0.165,50.305,16.031,133.908
-0.501,0.749,0.108,37.756,19.206,133.901
-0.432,0.764,0.100,25.107,22.863,131.435
-0.390,0.777,0.109,15.427,27.321,129.496
-0.397,0.826,0.150,8.641,32.802,130.718
-0.384,0.844,0.197,4.618,34.153,134.260
-0.364,0.861,0.218,4.542,33.588,139.756
-0.295,0.867,0.196,5.473,28.656,146.756
-0.164,0.845,0.154,2.397,25.588,149.702
-0.009,0.803,0.156,-3.481,25.321,145.076
0.113,0.801,0.163,-5.580,26.267,133.878
0.177,0.814,0.181,-6.191,27.458,118.954
0.131,0.857,0.197,-4.649,29.809,106.015
0.093,0.891,0.189,-3.710,29.580,100.908
0.104,0.900,0.168,-5.901,28.725,99.351
0.120,0.901,0.193,-7.443,25.328,97.962
0.132,0.905,0.223,-5.985,24.427,98.389
0.196,0.888,0.218,-5.489,23.351,97.244
0.289,0.878,0.224,-5.534,23.718,90.183
0.318,0.871,0.245,-6.008,23.832,79.840
0.290,0.901,0.274,-2.977,20.718,73.061
0.336,0.883,0.258,-0.351,17.489,66.458
0.385,0.876,0.249,0.031,15.504,54.466
0.337,0.900,0.265,1.947,14.359,44.893
0.293,0.913,0.256,4.962,9.221,42.733
0.337,0.902,0.202,5.863,9.985,40.198
0.356,0.892,0.211,3.557,12.176,34.092
0.341,0.902,0.227,3.481,10.511,29.313
0.331,0.903,0.226,6.000,9.969,27.817
0.366,0.889,0.194,5.137,8.832,23.511
0.373,0.890,0.188,3.321,7.725,18.252

0.975,0.646,0.199,-14.687,-33.656,-67.985
1.366,0.523,0.186,-30.359,-70.160,-134.748
1.665,0.375,0.148,-55.863,-97.580,-245.542
1.382,0.149,0.134,-70.153,-82.107,-250.137
0.985,-0.070,0.318,-70.786,-53.664,-250.137
0.520,-0.160,0.453,-54.176,-23.878,-250.137
-0.170,-0.068,0.603,-33.107,11.153,-250.137
-0.986,0.262,0.626,-5.611,20.802,-250.137
-2.000,0.807,0.376,-8.740,-14.504,-250.137
-2.000,1.303,0.289,-33.931,-52.176,-220.756
-2.000,1.416,0.617,-17.405,-53.977,-51.962
-2.000,1.233,0.627,31.031,-26.023,72.382
-1.536,0.932,0.466,55.954,-5.962,143.550
-1.003,0.700,0.365,68.282,-3.435,187.511
-0.609,0.565,0.218,69.603,0.618,194.656
-0.360,0.523,0.104,57.237,13.916,178.542
-0.266,0.584,0.064,41.389,28.794,154.527
-0.337,0.649,0.060,25.969,37.893,139.344
-0.382,0.736,0.109,9.466,43.779,132.588
-0.393,0.808,0.202,-1.977,45.794,131.901
-0.392,0.836,0.290,-4.939,43.748,137.084
-0.362,0.861,0.323,-3.557,40.267,142.107
-0.270,0.845,0.315,-2.084,34.695,148.237
-0.156,0.819,0.297,-1.366,30.687,148.954
-0.078,0.822,0.273,1.573,28.481,143.458
-0.053,0.848,0.246,3.641,29.992,143.366
0.058,0.833,0.260,4.718,29.573,139.779
0.132,0.827,0.225,4.786,28.267,129.885
0.205,0.845,0.203,2.611,25.305,120.603
0.269,0.834,0.200,1.099,25.244,108.290
0.270,0.853,0.240,1.710,27.748,94.458
0.188,0.950,0.190,1.779,22.832,92.542
0.296,0.862,0.231,0.466,21.160,85.511
0.262,0.891,0.250,1.634,14.756,76.634
0.247,0.895,0.226,-0.229,14.137,75.000
0.291,0.881,0.265,0.107,16.008,69.214
0.322,0.880,0.271,2.794,18.206,62.084
0.325,0.896,0.279,6.641,18.443,55.351
0.354,0.898,0.272,9.725,15.038,48.115
0.349,0.889,0.251,10.634,12.359,40.267
0.302,0.908,0.227,10.473,9.405,35.542
0.303,0.896,0.192,9.618,6.198,34.038
0.338,0.894,0.172,6.977,10.313,28.863
0.312,0.906,0.189,5.504,10.802,24.931
0.313,0.905,0.195,5.916,11.527,23.435
0.288,0.909,0.188,5.099,8.282,22.046
0.310,0.908,0.189,3.458,7.290,21.870
0.341,0.900,0.181,1.092,5.649,17.710
0.345,0.906,0.187,-0.069,4.336,14.412
0.365,0.896,0.188,-0.832,5.687,11.260

0.834,0.684,0.290,-13.626,-55.779,-47.366
1.472,0.585,0.230,-27.412,-104.290,-127.206
1.639,0.453,0.050,-41.282,-94.863,-238.763
1.371,0.284,-0.043,-64.534,-79.305,-250.137
0.757,0.185,0.301,-73.504,-68.893,-250.137
0.455,0.138,0.299,-66.214,-69.702,-250.137
0.183,0.059,0.282,-61.847,-33.412,-250.137
-0.609,0.330,0.575,-41.718,17.031,-250.137
-1.388,0.698,0.544,-11.695,32.084,-250.137
-2.000,1.078,0.451,-6.046,20.481,-250.137
-2.000,1.324,0.456,-1.527,-10.550,-150.641
-2.000,1.320,0.503,13.130,-28.145,-18.489
-1.720,1.165,0.453,33.695,-11.992,74.939
-1.380,0.919,0.426,47.863,-0.725,138.878
-0.880,0.729,0.349,61.672,1.702,172.771
-0.509,0.626,0.195,60.496,7.977,175.809
-0.280,0.590,0.125,46.092,14.794,156.863
-0.254,0.658,0.101,33.527,23.626,133.031
-0.325,0.747,0.064,21.069,36.267,120.618
-0.422,0.840,0.114,8.511,48.901,119.969
-0.490,0.888,0.196,1.168,54.458,130.588
-0.429,0.881,0.241,-3.855,51.092,144.031
-0.333,0.849,0.281,-6.374,49.344,150.389
-0.264,0.832,0.317,-5.214,43.359,155.916
-0.128,0.815,0.270,-4.679,39.992,159.809
-0.075,0.835,0.230,-5.023,38.015,163.710
0.040,0.824,0.228,-5.771,38.221,164.252
0.167,0.797,0.237,-5.084,35.649,156.450
0.271,0.791,0.225,-4.847,32.206,143.450
0.335,0.812,0.205,-4.389,33.000,127.740
0.341,0.827,0.229,-2.763,37.115,114.679
0.334,0.838,0.230,-1.817,37.412,104.443
0.378,0.813,0.281,-0.183,37.000,94.672
0.418,0.841,0.254,-2.649,33.672,88.099
0.429,0.855,0.302,-0.672,27.183,72.595
0.419,0.866,0.280,0.084,19.954,63.878
0.450,0.872,0.288,2.573,17.969,53.748
0.479,0.856,0.268,2.626,16.473,40.534
0.462,0.877,0.277,2.725,14.763,28.015
0.419,0.887,0.287,4.458,10.481,19.893
0.368,0.897,0.276,7.840,6.809,14.252
0.365,0.900,0.248,8.382,4.252,9.237
0.328,0.902,0.219,8.153,3.718,6.099
0.300,0.905,0.208,6.802,3.412,3.756
0.290,0.916,0.194,5.000,1.382,4.588
0.303,0.910,0.183,4.443,1.626,5.534
0.320,0.894,0.174,2.000,1.931,3.511
0.340,0.897,0.179,-0.519,2.038,-1.122
0.313,0.900,0.194,-2.153,1.206,-4.267
0.295,0.899,0.211,-2.160,0.710,-5.687

0.888,0.708,0.306,-9.603,-46.786,-46.061
1.232,0.599,0.239,-22.954,-88.664,-116.664
1.424,0.555,0.088,-45.489,-103.237,-207.359
1.168,0.385,0.056,-71.489,-92.588,-250.137
0.871,0.309,0.248,-68.275,-67.855,-250.137
0.637,0.163,0.275,-57.740,-62.084,-250.137
0.550,0.028,0.227,-52.824,-44.168,-250.137
0.165,-0.055,0.255,-44.794,-1.382,-250.137
-0.700,0.216,0.436,-30.481,48.916,-250.137
-1.794,0.677,0.497,-14.954,49.267,-250.137
-2.000,1.111,0.395,-17.031,10.679,-250.137
-2.000,1.320,0.472,-21.061,-21.344,-130.847
-2.000,1.371,0.592,0.824,-24.504,3.053
-2.000,1.178,0.550,33.939,1.481,120.107
-1.474,0.843,0.508,55.718,11.802,192.794
-0.889,0.594,0.384,69.153,6.901,225.405
-0.429,0.467,0.202,59.779,0.779,219.344
-0.118,0.455,0.110,41.397,3.573,185.427
-0.053,0.547,0.085,26.840,14.305,152.328
-0.145,0.663,0.098,13.908,30.870,125.771
-0.247,0.773,0.131,3.672,44.084,112.649
-0.346,0.856,0.212,-4.893,49.153,111.847
-0.451,0.907,0.315,-6.305,46.878,120.969
-0.399,0.903,0.349,-3.008,38.344,137.237
-0.271,0.879,0.290,0.084,30.099,149.679
-0.101,0.822,0.277,2.382,27.687,150.557
0.005,0.830,0.245,1.359,28.809,146.351
0.069,0.829,0.242,2.168,32.282,139.076
0.115,0.839,0.240,2.298,29.511,131.771
0.132,0.848,0.244,3.305,25.580,123.557
0.145,0.864,0.229,4.557,24.779,117.099
0.171,0.864,0.210,4.740,24.221,112.145
0.240,0.857,0.198,4.290,24.221,105.977
0.314,0.852,0.182,2.405,23.420,96.969
0.365,0.853,0.200,-1.672,23.534,82.962
0.347,0.869,0.223,-3.405,22.412,68.878
0.302,0.895,0.261,-3.076,18.756,58.542
0.290,0.902,0.279,-1.229,15.389,52.382
0.326,0.905,0.264,0.405,14.023,45.237
0.308,0.915,0.265,2.053,14.298,37.084
0.260,0.924,0.278,3.550,11.107,35.061
0.301,0.908,0.259,5.374,10.023,33.137
0.318,0.906,0.253,6.115,11.023,27.000
0.323,0.908,0.218,6.771,10.015,21.649
0.331,0.900,0.208,6.046,8.168,16.557
0.313,0.906,0.187,5.237,6.221,11.878
0.301,0.920,0.175,4.885,5.450,11.015
0.326,0.895,0.156,1.878,6.107,7.137
0.324,0.901,0.166,-1.832,5.840,2.206
0.289,0.911,0.197,-4.733,6.649,-1.847

0.906,0.598,0.319,-27.443,-64.351,-61.504
1.522,0.625,0.249,-47.427,-123.504,-146.313
1.452,0.404,-0.001,-72.443,-119.550,-250.137
1.120,0.253,0.095,-88.779,-78.092,-250.137
0.726,0.101,0.130,-84.656,-38.840,-250.137
0.409,-0.104,0.054,-92.191,-30.000,-250.137
-0.114,-0.126,0.081,-101.260,5.015,-250.137
-0.821,0.152,0.376,-99.664,44.924,-250.137
-1.700,0.620,0.619,-99.160,74.328,-250.137
-2.000,1.009,0.856,-88.603,54.137,-250.137
-2.000,1.372,1.142,-32.206,-8.649,-125.351
-2.000,1.330,1.042,34.450,-38.344,67.527
-1.925,0.967,0.746,67.771,-21.198,181.290
-1.243,0.659,0.656,95.000,-17.901,248.198
-0.694,0.474,0.385,103.565,-6.794,250.130
-0.400,0.414,0.253,89.771,-0.084,250.130
-0.227,0.407,0.188,75.122,6.977,230.519
-0.156,0.496,0.094,58.588,19.847,201.656
-0.117,0.590,0.049,35.824,32.695,183.115
-0.127,0.664,0.100,13.565,48.916,163.771
-0.210,0.755,0.222,1.397,53.687,153.397
-0.284,0.807,0.326,-0.847,47.290,155.527
-0.219,0.819,0.357,2.282,36.473,162.137
-0.099,0.779,0.361,4.565,31.916,165.084
0.022,0.776,0.335,6.992,28.366,162.321
0.094,0.795,0.311,7.076,26.580,156.687
0.166,0.794,0.310,8.466,27.847,149.893
0.208,0.805,0.354,13.168,25.931,138.878
0.228,0.835,0.293,18.015,24.511,132.031
0.295,0.819,0.250,17.924,25.786,126.450
0.355,0.805,0.305,18.832,28.145,114.229
0.343,0.893,0.151,14.473,22.168,107.168
0.466,0.806,0.236,15.206,25.855,88.954
0.413,0.858,0.240,14.244,17.641,77.275
0.484,0.835,0.216,12.275,18.023,66.718
0.479,0.845,0.237,10.588,16.427,52.290
0.470,0.855,0.237,8.939,15.634,38.809
0.428,0.874,0.241,8.534,14.092,31.298
0.400,0.877,0.241,9.229,12.679,26.160
0.380,0.875,0.241,9.435,11.359,20.137
0.331,0.890,0.240,7.290,9.618,18.069
0.343,0.895,0.243,6.939,6.847,17.618
0.329,0.902,0.218,7.947,3.305,16.489
0.366,0.888,0.192,6.420,4.840,14.603
0.372,0.882,0.195,4.076,6.718,10.351
0.378,0.876,0.188,2.130,7.351,5.405
0.337,0.890,0.209,-0.344,6.427,1.992
0.319,0.897,0.229,-0.985,4.229,1.466
0.310,0.904,0.221,-1.275,3.802,1.336
0.294,0.908,0.230,-1.183,4.046,1.519

0.900,0.671,0.251,-10.672,-19.733,-62.420
1.366,0.447,0.235,-28.588,-65.748,-134.366
1.590,0.360,0.180,-51.664,-104.924,-249.374
1.154,0.263,0.092,-69.863,-92.389,-250.137
0.598,0.237,0.263,-79.817,-67.710,-250.137
0.586,0.046,0.372,-72.160,-50.412,-250.137
0.449,-0.057,0.339,-52.702,-20.473,-250.137
-0.075,-0.086,0.354,-39.863,11.786,-250.137
-0.786,0.196,0.512,-33.878,27.947,-250.137
-1.752,0.635,0.582,-38.137,19.763,-250.137
-2.000,1.090,0.699,-29.481,0.664,-250.137
-2.000,1.394,0.781,-5.878,-36.244,-151.710
-2.000,1.437,0.757,31.145,-44.321,14.122
-2.000,1.172,0.630,65.802,-18.137,137.168
-1.445,0.803,0.572,94.893,-10.107,215.206
-0.843,0.588,0.329,105.832,-8.321,242.374
-0.458,0.460,0.105,87.153,-7.817,236.275
-0.247,0.454,0.026,61.542,-6.084,213.321
-0.129,0.533,-0.021,42.282,10.893,183.863
-0.127,0.635,-0.028,23.687,37.664,163.695
-0.190,0.730,0.082,5.023,56.901,148.931
-0.312,0.806,0.224,-1.817,60.328,146.298
-0.303,0.837,0.265,-1.275,55.359,152.046
-0.232,0.808,0.299,-4.618,51.237,155.954
-0.084,0.789,0.319,-6.282,46.603,153.076
0.005,0.789,0.331,-2.802,39.847,147.115
0.042,0.822,0.303,-0.710,31.817,142.901
0.109,0.829,0.276,0.603,28.214,138.221
0.162,0.832,0.276,1.672,26.809,128.382
0.153,0.852,0.290,4.351,26.702,120.412
0.196,0.848,0.278,8.679,27.405,116.275
0.283,0.833,0.243,10.565,27.656,105.527
0.294,0.914,0.118,3.374,22.328,98.481
0.428,0.828,0.220,1.504,22.557,81.282
0.349,0.878,0.234,2.046,18.015,68.626
0.381,0.867,0.249,2.237,20.947,61.069
0.414,0.866,0.253,2.878,17.824,49.626
0.360,0.887,0.242,2.931,18.107,39.374
0.307,0.909,0.257,2.550,15.962,38.397
0.355,0.894,0.263,4.031,14.237,35.313
0.333,0.904,0.260,4.947,10.924,29.458
0.340,0.900,0.253,6.366,9.672,28.008
0.396,0.875,0.234,6.038,6.634,21.237
0.380,0.883,0.220,6.267,7.344,11.626
0.281,0.917,0.218,7.305,9.794,10.695
0.271,0.907,0.198,6.931,10.557,13.382
0.294,0.898,0.187,3.832,8.802,12.504
0.280,0.918,0.202,1.725,6.115,11.420
0.282,0.919,0.218,2.855,3.893,13.611
0.343,0.900,0.188,1.878,5.473,11.389

0.894,0.668,0.259,-11.985,-31.290,-57.084
1.372,0.516,0.197,-25.573,-68.733,-133.885
1.651,0.454,0.038,-47.290,-72.061,-243.924
1.189,0.244,0.061,-72.405,-52.107,-250.137
0.817,0.110,0.163,-83.435,-55.420,-250.137
0.545,-0.032,0.185,-82.809,-54.786,-250.137
0.281,-0.092,0.102,-83.588,-29.481,-250.137
-0.371,0.018,0.270,-82.183,28.427,-250.137
-1.216,0.385,0.472,-63.611,53.977,-250.137
-2.000,0.863,0.443,-63.618,52.641,-250.137
-2.000,1.210,0.580,-61.656,39.718,-239.809
-2.000,1.387,0.778,-36.878,10.832,-89.809
-2.000,1.378,0.853,4.282,0.275,48.198
-2.000,1.087,0.749,39.947,5.870,165.328
-1.409,0.788,0.707,70.015,-4.076,233.802
-0.853,0.569,0.481,91.664,-8.130,250.130
-0.397,0.467,0.206,80.473,3.756,250.130
-0.124,0.435,0.139,60.290,14.237,234.214
-0.025,0.517,0.118,41.931,23.489,202.573
-0.062,0.623,0.131,28.466,34.061,179.702
-0.064,0.698,0.147,17.458,40.137,166.527
-0.023,0.721,0.187,5.366,37.573,151.817
-0.007,0.785,0.223,-3.328,35.107,135.718
-0.065,0.834,0.268,-4.443,33.763,130.053
-0.079,0.868,0.304,-1.496,29.145,130.924
0.029,0.841,0.252,1.130,25.595,131.580
0.077,0.847,0.267,2.977,23.298,125.786
0.141,0.842,0.236,3.389,22.282,121.069
0.218,0.842,0.245,2.420,21.595,110.267
0.271,0.837,0.258,2.397,20.481,97.748
0.285,0.859,0.258,4.603,18.901,85.191
0.291,0.872,0.253,6.870,20.282,74.366
0.265,0.885,0.239,6.427,22.344,65.397
0.218,0.906,0.237,5.527,22.191,63.534
0.242,0.901,0.231,2.573,19.740,62.244
0.300,0.885,0.248,0.710,15.947,58.237
0.317,0.894,0.272,1.061,12.321,50.649
0.321,0.897,0.291,3.924,6.489,45.977
0.383,0.881,0.248,7.023,6.855,37.527
0.366,0.882,0.225,5.573,9.038,26.260
0.343,0.903,0.222,4.229,13.229,18.260
0.287,0.913,0.230,3.580,12.908,13.122
0.229,0.931,0.265,5.679,7.756,14.954
0.243,0.919,0.212,6.771,5.649,17.550
0.265,0.910,0.196,4.427,6.015,16.321
0.253,0.919,0.200,3.878,7.023,15.855
0.249,0.918,0.194,2.863,8.298,17.176
0.282,0.910,0.194,1.824,10.107,16.580
0.291,0.916,0.194,0.733,10.977,13.985
0.277,0.915,0.216,0.153,11.237,12.405

0.816,0.689,0.320,-10.466,-23.992,-50.076
1.344,0.544,0.280,-22.504,-73.901,-115.962
1.594,0.500,0.108,-40.107,-94.115,-222.878
1.296,0.363,-0.001,-62.824,-73.168,-250.137
1.058,0.159,0.205,-71.137,-52.863,-250.137
0.906,-0.019,0.317,-51.977,-32.466,-250.137
0.588,-0.200,0.192,-36.099,-11.252,-250.137
-0.149,-0.181,0.155,-36.427,24.840,-250.137
-1.174,0.226,0.289,-52.855,30.901,-250.137
-2.000,0.763,0.367,-67.321,10.053,-250.137
-2.000,1.277,0.406,-75.107,2.786,-250.137
-2.000,1.408,0.646,-59.870,-1.137,-96.992
-2.000,1.324,0.824,-17.053,15.336,33.756
-1.828,1.086,0.837,31.435,31.099,129.420
-1.338,0.823,0.706,66.847,20.275,199.840
-0.741,0.623,0.467,78.748,11.321,223.076
-0.488,0.553,0.292,68.664,12.458,215.031
-0.420,0.574,0.210,53.328,18.504,203.389
-0.350,0.611,0.166,41.305,25.763,197.542
-0.201,0.643,0.130,28.069,30.809,187.901
-0.125,0.691,0.136,11.824,40.382,172.924
-0.172,0.760,0.265,3.824,44.084,161.168
-0.177,0.779,0.303,5.275,37.458,158.214
-0.119,0.802,0.273,7.053,27.947,157.634
-0.064,0.831,0.232,4.427,26.221,154.916
-0.023,0.804,0.276,5.534,26.626,154.786
0.066,0.803,0.251,7.885,20.618,149.550
0.159,0.806,0.206,6.405,17.084,140.046
0.225,0.815,0.196,5.359,18.061,129.305
0.281,0.833,0.207,5.252,19.031,117.115
0.260,0.845,0.226,5.962,22.328,105.641
0.238,0.866,0.233,7.618,21.679,99.267
0.251,0.870,0.215,8.656,19.519,95.733
0.309,0.857,0.181,5.237,17.939,90.252
0.270,0.890,0.225,2.947,13.595,85.573
0.284,0.876,0.245,5.298,8.565,87.344
0.381,0.852,0.209,3.489,7.580,82.191
0.472,0.848,0.205,1.466,11.191,71.084
0.493,0.853,0.231,0.504,13.069,56.275
0.471,0.867,0.249,1.931,12.740,45.969
0.438,0.867,0.259,3.725,12.481,37.458
0.419,0.878,0.257,4.412,10.740,30.756
0.395,0.882,0.236,4.962,10.817,26.977
0.394,0.882,0.237,4.344,10.237,24.290
0.398,0.879,0.235,4.588,8.481,20.931
0.405,0.874,0.214,5.008,9.611,18.405
0.406,0.874,0.215,4.366,10.221,15.824
0.445,0.870,0.204,3.191,9.565,11.122
0.422,0.882,0.204,1.611,7.038,5.084
0.378,0.884,0.212,0.916,5.481,2.611

0.843,0.638,0.361,-3.916,-43.290,-31.695
1.699,0.526,0.251,-16.603,-93.176,-111.664
2.000,0.318,-0.018,-39.687,-96.939,-245.237
1.561,0.096,-0.073,-76.313,-71.015,-250.137
0.925,-0.053,0.123,-93.000,-54.939,-250.137
0.391,-0.145,0.162,-85.626,-45.198,-250.137
-0.032,-0.158,0.180,-86.817,-9.733,-250.137
-0.917,0.200,0.594,-75.122,37.435,-250.137
-2.000,0.825,0.703,-42.580,46.099,-250.137
-2.000,1.375,0.589,-21.802,10.061,-231.863
-2.000,1.431,0.617,-4.802,-25.229,-42.847
-1.900,1.240,0.639,24.107,-9.443,64.527
-1.498,0.979,0.579,49.229,10.290,149.282
-0.910,0.747,0.472,70.718,14.496,191.702
-0.574,0.629,0.275,70.374,24.603,199.916
-0.402,0.608,0.208,58.000,32.130,193.489
-0.326,0.640,0.183,46.954,35.237,182.702
-0.256,0.698,0.139,33.870,40.450,172.344
-0.243,0.749,0.157,17.969,45.931,163.832
-0.226,0.781,0.198,6.420,46.252,159.420
-0.214,0.811,0.254,0.939,42.145,158.344
-0.196,0.833,0.261,-1.122,40.382,160.802
-0.177,0.833,0.277,-3.176,41.885,162.985
-0.248,0.861,0.340,-1.229,41.397,176.038
-0.098,0.810,0.351,9.053,39.878,189.260
0.087,0.776,0.262,13.977,39.649,194.366
0.300,0.739,0.235,12.962,43.840,184.489
0.492,0.720,0.237,12.321,41.779,161.588
0.623,0.733,0.196,11.893,37.893,130.137
0.663,0.775,0.169,11.015,33.389,96.786
0.574,0.823,0.188,11.466,29.908,69.802
0.464,0.856,0.182,11.878,25.237,54.603
0.380,0.882,0.152,7.870,24.603,47.748
0.316,0.895,0.182,4.305,22.695,45.939
0.318,0.892,0.195,1.137,20.115,47.412
0.359,0.891,0.231,-2.168,12.779,46.427
0.422,0.884,0.255,-1.321,8.618,41.771
0.468,0.875,0.256,2.130,7.740,34.702
0.523,0.858,0.244,3.527,9.214,23.344
0.508,0.865,0.248,4.885,8.664,10.061
0.447,0.874,0.207,5.603,5.702,0.847
0.347,0.899,0.189,4.779,4.595,-1.397
0.295,0.912,0.185,2.366,3.382,0.840
0.301,0.906,0.184,0.389,-0.557,4.336
0.347,0.899,0.190,-1.191,-0.527,4.832
0.356,0.899,0.202,-0.763,-1.817,1.847
0.362,0.895,0.187,-0.870,-0.275,-1.191
0.353,0.901,0.192,-1.550,1.718,-3.733
0.338,0.900,0.198,-2.397,3.634,-6.191
0.288,0.920,0.212,-2.954,3.107,-7.420

0.991,0.662,0.159,-35.099,-74.092,-77.954
1.225,0.566,0.103,-60.038,-115.565,-141.351
1.473,0.503,-0.003,-90.649,-130.878,-222.824
1.353,0.240,0.048,-107.328,-112.748,-250.137
1.175,0.003,0.141,-120.359,-93.405,-250.137
0.784,-0.242,0.091,-125.038,-51.901,-250.137
0.210,-0.286,0.121,-126.366,-3.313,-250.137
-0.464,-0.096,0.319,-115.252,49.351,-250.137
-1.300,0.319,0.620,-93.275,98.229,-250.137
-2.000,0.906,0.826,-75.252,76.405,-250.137
-2.000,1.366,0.977,-49.534,15.458,-175.023
-2.000,1.403,1.047,8.687,-21.580,22.763
-1.977,1.088,0.849,53.252,-7.221,135.397
-1.343,0.736,0.718,81.382,1.756,210.740
-0.774,0.534,0.565,102.336,2.435,234.664
-0.389,0.464,0.267,92.595,9.267,224.786
-0.259,0.483,0.191,71.038,19.473,201.267
-0.352,0.602,0.210,54.702,25.107,185.878
-0.326,0.666,0.162,46.305,30.176,186.626
-0.183,0.693,0.104,31.901,38.756,181.466
-0.106,0.714,0.139,14.084,46.397,170.160
-0.135,0.763,0.263,1.389,46.046,158.695
-0.169,0.816,0.353,3.038,37.191,158.176
-0.121,0.819,0.358,10.344,28.748,164.672
-0.003,0.797,0.312,14.557,25.595,169.053
0.107,0.790,0.280,14.412,24.481,163.397
0.207,0.784,0.289,15.298,25.145,153.557
0.309,0.794,0.292,18.664,23.985,138.779
0.388,0.798,0.258,22.130,20.954,122.038
0.423,0.814,0.217,20.885,12.695,102.687
0.454,0.832,0.177,19.374,10.931,84.748
0.446,0.842,0.154,15.466,11.985,65.580
0.318,0.923,0.109,11.427,16.168,53.000
0.230,0.924,0.175,10.557,16.321,53.931
0.291,0.875,0.216,13.870,18.786,49.115
0.241,0.921,0.177,10.809,14.153,49.626
0.319,0.888,0.194,7.435,12.145,48.756
0.376,0.887,0.198,5.519,8.374,43.130
0.392,0.884,0.211,5.038,9.580,32.573
0.358,0.898,0.208,4.099,8.802,26.519
0.371,0.900,0.227,3.656,9.557,19.679
0.330,0.901,0.230,4.031,8.992,12.870
0.282,0.912,0.222,4.756,7.237,11.366
0.266,0.927,0.214,5.015,7.046,12.412
0.262,0.928,0.215,4.328,4.863,15.519
0.284,0.917,0.196,5.069,4.763,16.870
0.315,0.908,0.183,4.053,6.466,14.832
0.303,0.917,0.178,2.832,8.015,13.290
0.318,0.908,0.189,1.603,6.870,12.267
0.341,0.896,0.183,-0.084,4.779,9.412

0.927,0.670,0.274,-32.443,-55.374,-68.069
1.297,0.584,0.254,-37.252,-91.252,-136.389
1.432,0.488,0.126,-49.489,-105.595,-222.542
1.163,0.298,0.025,-72.412,-86.962,-250.137
0.902,0.122,0.200,-80.382,-67.527,-250.137
0.761,0.002,0.250,-72.756,-55.649,-250.137
0.446,-0.154,0.167,-73.252,-43.511,-250.137
0.170,-0.267,0.156,-74.107,-13.412,-250.137
-0.417,-0.114,0.378,-54.519,48.076,-250.137
-1.322,0.269,0.559,-39.191,86.206,-250.137
-2.000,0.914,0.630,-39.954,32.893,-250.137
-2.000,1.382,0.658,-38.290,-49.069,-197.115
-2.000,1.426,0.755,-15.954,-42.916,-3.916
-2.000,1.240,0.834,41.115,-2.405,157.786
-1.731,0.703,0.830,87.298,13.763,249.496
-0.898,0.479,0.610,116.931,6.214,250.130
-0.418,0.372,0.291,105.847,8.763,250.130
-0.188,0.393,0.131,77.611,11.008,228.344
-0.191,0.479,0.085,61.122,19.855,203.137
-0.184,0.563,0.039,49.069,28.641,189.374
-0.125,0.641,-0.009,32.901,42.305,170.824
-0.157,0.710,0.037,12.519,52.252,153.786
-0.166,0.752,0.124,-0.168,51.573,143.298
-0.190,0.784,0.215,-6.878,42.092,136.664
-0.205,0.833,0.261,-6.519,32.023,136.527
-0.190,0.861,0.255,-2.969,26.878,137.374
-0.107,0.831,0.231,2.382,26.023,139.733
-0.027,0.841,0.172,0.137,26.466,135.260
0.007,0.850,0.175,-4.305,28.382,128.878
0.017,0.875,0.217,-4.702,28.160,126.702
0.084,0.860,0.230,-4.267,24.718,123.817
0.161,0.857,0.220,-4.634,22.809,114.687
0.186,0.871,0.243,-3.168,22.611,106.351
0.234,0.869,0.219,-0.511,23.916,95.763
0.219,0.913,0.226,2.863,20.351,88.137
0.304,0.883,0.217,-3.679,16.855,80.725
0.299,0.874,0.279,-3.542,9.176,67.252
0.290,0.912,0.235,-2.962,8.427,62.458
0.333,0.897,0.255,-1.107,13.183,53.092
0.341,0.900,0.262,2.748,14.779,42.298
0.344,0.907,0.251,4.672,13.214,32.496
0.359,0.908,0.231,5.405,10.176,22.351
0.326,0.911,0.229,5.939,6.145,14.298
0.296,0.913,0.191,6.336,5.649,8.893
0.276,0.916,0.180,5.000,6.038,4.542
0.225,0.923,0.172,2.015,5.214,0.870
0.155,0.946,0.213,1.237,3.969,4.466
0.182,0.934,0.200,2.733,5.229,8.130
0.195,0.936,0.179,2.092,5.878,8.489
0.220,0.939,0.177,0.160,5.115,9.046

0.822,0.701,0.327,-13.244,-51.435,-59.366
1.398,0.612,0.278,-29.061,-107.061,-135.855
1.545,0.512,0.186,-49.817,-135.992,-226.237
1.290,0.263,0.158,-58.817,-115.817,-250.137
0.963,0.070,0.166,-61.992,-86.595,-250.137
0.596,0.006,0.154,-61.053,-49.069,-250.137
-0.058,-0.020,0.319,-55.992,-3.359,-250.137
-0.711,0.223,0.511,-27.237,31.397,-250.137
-1.591,0.621,0.529,-3.313,38.130,-250.137
-2.000,1.008,0.446,0.405,12.573,-250.137
-2.000,1.246,0.443,-0.481,-23.672,-163.397
-2.000,1.317,0.479,17.153,-36.405,-21.084
-1.965,1.172,0.388,41.260,-11.191,90.458
-1.482,0.858,0.395,53.542,12.542,163.344
-0.955,0.701,0.390,70.779,16.176,197.626
-0.617,0.593,0.194,65.893,26.099,196.924
-0.516,0.598,0.134,48.168,32.702,184.595
-0.568,0.651,0.135,35.939,35.344,181.580
-0.567,0.706,0.128,26.672,40.748,186.076
-0.523,0.738,0.138,18.985,46.809,195.817
-0.389,0.727,0.147,10.405,51.977,200.038
-0.260,0.722,0.170,1.214,51.969,195.863
-0.176,0.725,0.197,-3.229,50.511,191.137
-0.045,0.719,0.230,-7.786,45.893,182.137
0.072,0.740,0.230,-10.687,43.084,166.603
0.104,0.781,0.247,-12.435,40.634,154.840
0.141,0.807,0.254,-11.023,38.084,143.130
0.174,0.839,0.260,-6.511,37.084,133.634
0.210,0.854,0.254,-3.916,34.725,124.053
0.266,0.858,0.241,0.649,32.458,116.069
0.397,0.764,0.314,9.405,31.687,103.809
0.442,0.804,0.219,5.084,29.000,96.282
0.526,0.803,0.227,4.626,26.565,71.618
0.444,0.882,0.170,2.382,18.298,60.427
0.483,0.872,0.157,0.565,18.802,48.008
0.459,0.876,0.185,-0.916,16.053,32.832
0.386,0.905,0.191,-2.099,13.992,22.214
0.317,0.915,0.187,-3.130,11.427,20.405
0.333,0.910,0.211,-3.863,10.817,16.427
0.322,0.919,0.240,-2.023,8.229,14.122
0.321,0.917,0.223,-0.130,7.878,11.435
0.316,0.914,0.225,-0.756,6.656,6.664
0.306,0.931,0.230,-0.618,4.794,3.389
0.290,0.925,0.221,0.206,4.382,0.076
0.266,0.927,0.207,0.176,3.550,-2.580
0.237,0.937,0.213,1.603,1.359,-3.748
0.231,0.945,0.191,1.672,0.740,-3.435
0.229,0.935,0.182,-0.092,1.435,-4.366
0.173,0.949,0.208,-0.695,2.687,-4.168
0.133,0.950,0.218,0.740,4.267,1.244

1.096,0.620,0.124,-20.466,-107.733,-93.496
1.695,0.515,-0.098,-65.237,-157.939,-176.305
1.914,0.115,-0.102,-112.618,-161.504,-250.137
1.543,-0.297,0.159,-124.443,-110.076,-250.137
0.755,-0.533,0.273,-111.198,-35.618,-250.137
-0.371,-0.312,0.508,-77.878,45.206,-250.137
-1.977,0.368,0.583,-57.595,57.008,-250.137
-2.000,1.164,0.488,-74.397,11.924,-250.137
-2.000,1.645,0.880,-61.084,-39.496,-101.687
-2.000,1.435,1.090,22.511,-33.344,87.008
-1.712,0.990,0.716,67.611,-8.069,179.160
-0.927,0.643,0.477,80.061,-8.832,223.916
-0.195,0.420,0.283,75.160,-11.443,212.214
0.147,0.388,0.147,58.725,-8.573,157.565
0.093,0.510,0.070,40.374,2.076,99.412
-0.198,0.679,0.038,28.756,20.634,75.099
-0.434,0.824,0.046,15.237,43.244,73.817
-0.632,0.928,0.184,3.855,56.573,87.817
-0.702,0.985,0.298,0.321,61.771,114.542
-0.661,0.972,0.379,-0.534,58.389,143.702
-0.510,0.897,0.421,7.130,52.542,172.504
-0.224,0.785,0.394,11.832,45.473,184.038
-0.093,0.764,0.358,15.786,40.580,182.275
0.001,0.771,0.295,18.122,37.847,176.046
0.062,0.778,0.251,14.702,37.206,168.733
0.141,0.788,0.237,10.947,34.779,159.282
0.230,0.808,0.217,11.008,32.313,147.031
0.336,0.796,0.186,8.046,31.748,129.885
0.409,0.803,0.187,4.847,30.588,107.969
0.384,0.835,0.221,6.687,29.718,86.214
0.354,0.854,0.233,10.901,30.168,73.176
0.258,0.935,0.127,3.718,25.832,65.985
0.329,0.874,0.214,1.519,26.641,54.557
0.263,0.911,0.229,-0.275,22.786,49.466
0.266,0.906,0.272,-1.885,22.802,46.115
0.261,0.919,0.311,1.771,17.176,44.656
0.298,0.909,0.281,5.351,13.802,42.198
0.332,0.917,0.262,6.519,13.458,38.214
0.378,0.894,0.270,7.878,13.420,29.000
0.355,0.896,0.238,9.771,13.122,20.389
0.329,0.907,0.193,8.847,11.733,15.176
0.311,0.896,0.187,6.855,9.328,12.069
0.310,0.901,0.190,4.786,7.053,7.885
0.284,0.903,0.185,2.893,6.130,5.115
0.272,0.917,0.189,1.481,6.481,4.397
0.247,0.928,0.191,1.664,7.130,5.771
0.263,0.930,0.201,1.229,5.733,7.122
0.278,0.915,0.200,0.916,5.015,6.092
0.292,0.917,0.188,-0.153,5.374,4.374
0.293,0.910,0.199,-2.679,6.176,1.313

0.872,0.656,0.323,-5.214,-42.817,-57.191
1.375,0.589,0.149,-15.092,-75.107,-136.031
1.692,0.359,0.046,-44.763,-92.366,-247.008
1.568,0.145,0.164,-65.298,-83.962,-250.137
1.046,-0.180,0.409,-47.122,-70.679,-250.137
0.789,-0.531,0.283,-23.031,-63.718,-250.137
0.161,-0.716,0.259,-15.328,-46.275,-250.137
-0.779,-0.412,0.396,-38.893,-34.282,-250.137
-2.000,0.382,0.544,-72.817,-18.634,-250.137
-2.000,1.193,0.692,-68.466,-58.954,-250.137
-2.000,1.700,0.661,-46.427,-89.710,-129.405
-2.000,1.624,0.795,-0.809,-52.740,88.206
-2.000,0.993,0.890,67.489,-0.847,219.740
-1.155,0.566,0.774,113.695,-1.076,250.130
-0.334,0.391,0.407,121.977,-7.733,250.130
0.050,0.355,0.153,95.924,-9.405,224.870
-0.053,0.472,0.119,71.076,-0.038,172.511
-0.233,0.592,0.031,63.183,11.855,154.328
-0.272,0.691,-0.133,47.206,37.214,145.336
-0.388,0.788,-0.142,17.076,64.267,139.702
-0.488,0.866,0.034,-5.344,76.504,147.214
-0.487,0.873,0.214,-14.252,73.443,163.542
-0.476,0.860,0.358,-10.687,68.779,182.153
-0.389,0.801,0.401,2.832,60.672,200.214
-0.208,0.744,0.329,10.588,51.679,209.840
0.007,0.693,0.204,5.168,47.099,205.313
0.121,0.720,0.188,-4.611,44.435,194.031
0.150,0.744,0.212,-7.405,44.832,182.092
0.210,0.761,0.178,-8.160,46.015,171.237
0.244,0.783,0.199,-8.565,50.328,164.130
0.369,0.772,0.226,-9.076,49.832,152.527
0.467,0.779,0.261,-8.038,44.153,133.061
0.576,0.760,0.306,-3.641,39.420,108.321
0.474,0.896,0.193,-9.198,31.015,92.618
0.588,0.809,0.279,-4.344,36.260,64.412
0.461,0.875,0.286,-1.809,32.221,49.954
0.458,0.864,0.305,-1.481,30.679,39.779
0.406,0.880,0.319,2.443,22.145,32.237
0.365,0.900,0.307,5.542,16.870,30.260
0.389,0.891,0.263,7.527,13.771,31.779
0.447,0.862,0.263,7.992,11.893,25.718
0.475,0.866,0.245,8.046,9.107,16.237
0.441,0.872,0.215,7.718,8.595,9.565
0.413,0.883,0.214,7.198,6.473,5.221
0.385,0.882,0.192,6.893,3.313,2.534
0.366,0.882,0.165,3.092,3.031,-0.626
0.355,0.889,0.165,0.137,2.359,-3.321
0.316,0.899,0.189,-0.840,3.168,-3.405
0.311,0.898,0.196,-1.176,3.053,-2.809
0.317,0.899,0.204,-2.534,3.641,-2.802

0.817,0.726,0.276,-10.573,-20.618,-60.649
1.245,0.602,0.231,-13.962,-42.000,-119.122
1.483,0.529,0.045,-22.626,-43.282,-218.237
1.047,0.389,0.071,-33.008,-15.107,-250.137
0.481,0.302,0.245,-33.840,-30.328,-250.137
0.168,0.192,0.179,-34.099,-41.427,-250.137
0.028,0.210,0.214,-40.061,-25.794,-250.137
-0.487,0.365,0.391,-44.305,-10.130,-250.137
-1.194,0.785,0.490,-39.809,11.153,-250.137
-1.893,1.155,0.628,-30.084,5.511,-248.718
-2.000,1.354,0.703,-5.191,-29.389,-125.550
-1.938,1.356,0.600,17.550,-48.443,-8.550
-1.417,1.165,0.546,34.160,-38.229,74.023
-1.005,0.962,0.471,52.771,-15.733,121.122
-0.634,0.789,0.354,59.023,-13.321,142.863
-0.422,0.734,0.256,56.176,-10.214,142.580
-0.389,0.752,0.180,49.985,-0.969,139.771
-0.441,0.799,0.150,43.748,12.573,142.328
-0.406,0.808,0.092,35.397,28.061,148.870
-0.374,0.818,0.062,21.679,42.176,153.290
-0.299,0.808,0.146,5.954,45.511,159.855
-0.198,0.786,0.221,1.176,38.321,163.595
-0.084,0.785,0.215,-0.473,29.557,162.328
0.062,0.773,0.191,-0.817,27.870,155.878
0.188,0.776,0.153,-3.924,29.565,141.458
0.258,0.795,0.167,-8.504,32.496,123.702
0.222,0.837,0.205,-8.336,34.595,107.000
0.150,0.878,0.209,-5.359,35.000,101.229
0.192,0.882,0.205,-6.473,32.656,98.130
0.231,0.865,0.236,-9.290,30.282,90.756
0.251,0.885,0.267,-7.588,28.137,83.481
0.274,0.889,0.263,-4.603,28.000,77.527
0.321,0.876,0.262,-4.641,25.924,71.649
0.382,0.868,0.269,-5.130,24.702,61.519
0.398,0.885,0.292,-3.855,22.534,49.664
0.365,0.897,0.298,-1.168,19.939,41.153
0.326,0.896,0.315,0.908,14.191,36.588
0.346,0.912,0.303,3.565,9.069,32.092
0.339,0.896,0.288,5.931,3.580,28.580
0.378,0.897,0.234,5.908,4.565,21.718
0.320,0.901,0.233,6.489,8.992,17.802
0.328,0.895,0.227,6.618,12.435,15.092
0.326,0.896,0.216,5.061,11.969,11.450
0.314,0.903,0.221,2.855,6.534,8.374
0.319,0.896,0.211,1.802,2.878,6.420
0.350,0.900,0.201,0.809,1.511,2.481
0.320,0.902,0.201,0.153,4.313,-1.053
0.269,0.915,0.217,-1.435,6.832,-2.557
0.225,0.925,0.236,-1.160,6.397,-0.351
0.226,0.928,0.243,-0.015,4.092,4.405

0.776,0.736,0.306,-6.733,-42.832,-49.992
1.239,0.632,0.232,-18.130,-81.626,-109.435
1.582,0.447,0.025,-40.198,-81.695,-210.466
1.175,0.221,0.058,-62.565,-60.901,-250.137
0.619,0.167,0.132,-72.740,-55.237,-250.137
0.266,0.122,0.085,-76.244,-41.672,-250.137
-0.003,0.094,0.224,-81.069,-9.473,-250.137
-0.346,0.220,0.461,-65.748,26.328,-250.137
-1.049,0.563,0.581,-39.389,41.511,-250.137
-1.787,0.919,0.495,-30.893,25.435,-250.137
-2.000,1.187,0.516,-28.405,4.603,-198.313
-2.000,1.268,0.605,-18.725,-7.420,-85.603
-1.934,1.230,0.708,6.183,-7.534,12.588
-1.610,1.104,0.651,33.420,6.420,89.237
-1.322,0.896,0.594,56.008,9.000,147.794
-0.873,0.763,0.428,66.725,9.542,181.786
-0.600,0.670,0.274,63.321,17.168,190.099
-0.484,0.650,0.216,50.954,27.382,185.000
-0.504,0.687,0.209,37.916,36.435,184.321
-0.437,0.707,0.235,31.076,38.550,191.221
-0.308,0.693,0.227,26.382,37.992,192.328
-0.187,0.687,0.224,18.550,36.397,185.137
-0.080,0.705,0.221,13.069,34.573,175.183
-0.009,0.741,0.215,5.649,33.176,160.435
0.023,0.766,0.243,3.374,30.145,149.573
0.076,0.805,0.206,1.618,28.206,140.000
0.136,0.810,0.197,-1.328,27.954,127.649
0.171,0.835,0.204,-3.130,25.740,119.534
0.213,0.838,0.222,-2.244,25.252,108.832
0.244,0.856,0.217,-1.412,22.779,97.725
0.261,0.863,0.205,-1.870,23.252,85.992
0.249,0.871,0.234,-2.550,24.718,75.786
0.232,0.883,0.233,-1.847,25.420,68.672
0.200,0.904,0.246,-3.794,22.649,63.450
0.192,0.917,0.265,-3.664,17.588,62.718
0.225,0.906,0.285,-1.153,13.099,61.977
0.274,0.914,0.254,0.275,12.076,57.176
0.271,0.890,0.258,0.252,11.290,51.916
0.329,0.888,0.265,1.183,13.748,45.061
0.351,0.893,0.261,2.947,15.214,34.153
0.328,0.896,0.267,4.344,12.000,24.305
0.327,0.900,0.233,4.328,6.969,16.527
0.313,0.901,0.221,1.359,5.260,9.160
0.256,0.919,0.222,-0.015,6.656,6.351
0.213,0.924,0.236,-0.160,6.191,6.847
0.170,0.939,0.240,0.786,5.374,11.824
0.237,0.923,0.235,0.985,6.656,14.168
0.266,0.906,0.248,0.542,7.771,10.603
0.271,0.917,0.240,0.802,6.466,6.908
0.253,0.927,0.249,2.573,3.153,6.183

0.829,0.725,0.290,-1.031,-26.931,-46.206
1.495,0.531,0.225,-9.511,-67.084,-124.947
1.663,0.317,0.019,-41.924,-82.382,-246.298
1.187,0.122,0.090,-66.947,-53.023,-250.137
0.450,0.067,0.313,-65.733,-48.763,-250.137
0.214,0.044,0.254,-61.099,-47.977,-250.137
-0.144,0.032,0.332,-61.573,-15.252,-250.137
-0.899,0.376,0.470,-45.351,10.962,-250.137
-1.658,0.767,0.457,-41.450,8.786,-250.137
-2.000,1.026,0.489,-41.420,-8.069,-250.137
-2.000,1.176,0.595,-32.840,-12.802,-150.443
-2.000,1.161,0.737,-4.595,-14.855,-44.916
-1.601,1.028,0.646,27.137,-7.160,34.969
-1.286,0.875,0.566,44.794,5.137,85.160
-1.045,0.748,0.496,60.000,2.985,125.023
-0.707,0.678,0.352,65.664,6.702,139.565
-0.639,0.689,0.241,59.382,23.183,138.695
-0.741,0.737,0.235,48.702,34.855,147.099
-0.758,0.771,0.238,40.618,43.053,163.618
-0.729,0.784,0.251,32.527,44.763,183.115
-0.601,0.742,0.261,27.573,44.740,200.107
-0.431,0.726,0.279,24.015,42.366,209.557
-0.274,0.687,0.259,23.863,38.534,213.756
-0.095,0.652,0.203,19.794,35.412,207.931
0.030,0.669,0.191,11.359,35.145,190.260
0.080,0.719,0.187,6.420,32.962,172.260
0.143,0.759,0.142,1.015,31.542,158.656
0.256,0.764,0.147,-5.504,29.656,139.397
0.303,0.778,0.162,-8.664,28.115,118.321
0.313,0.809,0.159,-9.595,28.885,98.527
0.286,0.858,0.180,-9.847,28.618,82.573
0.260,0.867,0.189,-10.183,26.786,70.221
0.262,0.888,0.190,-13.053,23.466,60.191
0.267,0.893,0.230,-14.443,21.809,51.954
0.251,0.927,0.214,-19.214,13.672,46.618
0.340,0.880,0.292,-15.282,15.412,32.908
0.302,0.912,0.296,-12.397,13.244,24.160
0.323,0.901,0.290,-11.794,14.611,14.779
0.310,0.900,0.313,-9.641,11.084,5.389
0.276,0.914,0.322,-5.466,6.824,-2.115
0.242,0.923,0.301,-1.710,2.977,-6.290
0.224,0.920,0.272,-1.092,1.344,-10.084
0.182,0.921,0.260,-2.000,0.924,-13.382
0.168,0.932,0.245,-2.351,2.122,-15.298
0.116,0.941,0.242,-3.840,2.191,-15.321
0.070,0.943,0.244,-4.542,1.466,-12.023
0.087,0.948,0.247,-3.038,2.672,-7.069
0.098,0.943,0.240,-1.863,2.206,-5.183
0.117,0.930,0.244,-3.031,1.534,-3.947
0.137,0.927,0.242,-3.237,0.206,-5.626

0.788,0.717,0.369,8.908,-29.458,-35.634
1.385,0.500,0.301,6.244,-66.916,-112.031
1.659,0.370,0.019,-24.580,-84.198,-228.084
1.325,0.127,-0.008,-67.954,-76.649,-250.137
0.947,-0.059,0.173,-84.153,-74.916,-250.137
0.452,-0.139,0.219,-67.328,-49.977,-250.137
-0.075,-0.178,0.245,-56.435,-0.725,-250.137
-1.017,0.148,0.466,-42.298,54.809,-250.137
-2.000,0.718,0.529,-34.870,61.435,-250.137
-2.000,1.206,0.578,-32.527,4.618,-250.137
-2.000,1.484,0.607,-19.008,-26.893,-82.206
-2.000,1.379,0.689,16.145,-8.565,77.710
-2.000,0.968,0.660,49.504,22.221,190.122
-1.308,0.651,0.637,78.198,18.130,249.031
-0.751,0.475,0.448,89.176,13.443,250.130
-0.260,0.378,0.248,76.374,8.664,242.542
-0.053,0.416,0.165,56.740,9.641,205.969
-0.043,0.534,0.106,40.092,16.252,169.542
-0.090,0.634,0.085,29.366,27.481,147.565
-0.134,0.720,0.073,18.435,40.443,129.824
-0.227,0.790,0.119,7.275,49.000,119.748
-0.303,0.838,0.168,-2.695,48.206,118.809
-0.301,0.857,0.250,-10.908,39.817,122.099
-0.233,0.850,0.303,-8.511,27.550,126.969
-0.134,0.832,0.267,-2.992,22.969,128.824
-0.014,0.825,0.218,-2.344,23.366,125.000
0.034,0.843,0.181,-4.878,26.282,117.939
0.093,0.840,0.226,-5.542,26.740,109.267
0.113,0.847,0.223,-3.901,24.885,99.252
0.135,0.866,0.208,-5.420,19.855,88.702
0.123,0.883,0.209,-8.550,14.061,80.748
0.126,0.896,0.225,-7.855,14.443,74.641
0.110,0.909,0.222,-7.336,16.962,71.069
0.150,0.907,0.230,-7.992,19.557,68.137
0.187,0.896,0.240,-9.115,19.939,61.321
0.211,0.896,0.268,-10.573,17.626,53.504
0.220,0.903,0.297,-9.649,14.351,45.321
0.180,0.909,0.315,-7.588,11.130,37.290
0.151,0.929,0.316,-3.916,4.359,34.580
0.182,0.922,0.294,0.260,6.511,32.000
0.179,0.922,0.278,1.053,9.183,27.214
0.181,0.931,0.271,1.878,11.924,24.145
0.176,0.920,0.261,0.809,12.695,20.618
0.169,0.935,0.275,1.947,7.603,18.695
0.168,0.925,0.263,4.374,3.954,19.160
0.196,0.917,0.231,3.626,4.107,15.939
0.195,0.919,0.220,2.038,5.931,11.725
0.193,0.918,0.225,0.954,7.053,8.740
0.184,0.927,0.226,-0.527,6.542,6.794
0.168,0.931,0.236,-1.840,4.870,6.145

0.865,0.636,0.351,-13.366,-50.389,-61.267
1.508,0.503,0.223,-30.328,-97.038,-141.901
1.861,0.336,-0.010,-50.832,-81.313,-250.137
1.316,0.046,0.141,-58.916,-37.710,-250.137
0.652,-0.105,0.285,-45.466,-22.214,-250.137
-0.036,-0.127,0.383,-36.305,17.336,-250.137
-1.287,0.321,0.559,-20.458,35.725,-250.137
-2.000,0.996,0.468,-15.565,6.786,-250.137
-2.000,1.426,0.467,-13.718,-32.977,-176.168
-2.000,1.441,0.526,-1.718,-45.099,-2.481
-1.814,1.151,0.582,25.527,-15.527,103.695
-1.262,0.816,0.576,50.176,-6.527,162.420
-0.598,0.598,0.415,59.183,-21.267,180.023
-0.172,0.502,0.216,52.969,-22.244,154.634
-0.104,0.531,0.118,42.443,-8.084,116.763
-0.249,0.691,0.074,31.664,14.374,96.137
-0.419,0.775,0.075,20.008,33.985,91.832
-0.545,0.865,0.151,9.565,47.855,99.542
-0.633,0.921,0.252,3.885,51.252,118.092
-0.596,0.899,0.350,2.817,50.435,140.611
-0.513,0.851,0.431,8.427,44.344,154.489
-0.401,0.819,0.367,16.817,34.931,167.107
-0.209,0.761,0.281,19.031,31.076,168.817
-0.047,0.750,0.192,9.710,31.237,161.863
0.043,0.762,0.206,4.008,35.198,147.481
0.056,0.798,0.222,1.855,37.496,134.733
-0.025,0.853,0.221,1.511,39.679,129.679
-0.060,0.877,0.244,2.901,39.481,133.939
0.005,0.863,0.227,1.595,30.725,138.397
0.100,0.836,0.219,-1.969,23.885,138.313
0.221,0.832,0.221,-3.328,23.267,132.695
0.338,0.816,0.214,-3.214,26.160,121.794
0.419,0.821,0.218,-4.061,29.817,104.450
0.472,0.824,0.231,-5.550,28.771,85.916
0.523,0.836,0.267,-6.336,26.885,65.786
0.482,0.856,0.300,-5.565,23.198,46.817
0.391,0.890,0.312,-2.962,14.336,34.939
0.359,0.904,0.304,2.412,8.473,31.038
0.367,0.898,0.265,3.008,8.137,25.466
0.375,0.897,0.256,2.344,10.809,17.901
0.333,0.901,0.259,3.176,11.893,13.038
0.320,0.901,0.253,2.710,9.176,11.168
0.330,0.898,0.242,1.908,4.611,8.344
0.345,0.896,0.245,1.221,0.748,3.634
0.349,0.900,0.220,0.939,-0.206,-2.176
0.307,0.904,0.218,0.176,1.008,-7.450
0.248,0.915,0.207,-1.221,2.397,-9.901
0.216,0.919,0.227,-3.107,2.725,-8.420
0.177,0.930,0.251,-1.748,0.275,-3.802
0.216,0.920,0.229,-1.313,0.115,-1.779

0.685,0.783,0.355,4.305,-1.153,-35.130
1.191,0.581,0.419,12.458,-24.229,-73.038
1.867,0.423,0.375,8.824,-69.855,-169.832
1.679,0.211,0.075,-6.412,-85.649,-250.137
0.833,0.168,0.035,-36.107,-77.626,-250.137
0.162,0.209,0.114,-52.649,-81.840,-250.137
-0.017,0.215,0.199,-56.336,-61.588,-250.137
-0.235,0.297,0.342,-52.359,-28.855,-250.137
-0.748,0.527,0.449,-36.580,1.847,-250.137
-1.465,0.854,0.476,-26.725,6.183,-250.137
-1.913,1.130,0.515,-19.137,-10.176,-219.450
-2.000,1.210,0.607,-1.702,-26.863,-108.290
-1.829,1.141,0.600,24.786,-33.885,-11.573
-1.490,1.010,0.468,43.740,-19.435,56.916
-1.196,0.840,0.408,54.885,-10.183,101.214
-0.825,0.707,0.298,57.748,-7.359,121.870
-0.519,0.659,0.185,48.939,3.489,116.931
-0.462,0.686,0.158,34.817,15.863,106.359
-0.500,0.727,0.181,26.595,25.595,103.466
-0.493,0.772,0.179,19.450,30.649,104.725
-0.460,0.815,0.162,8.832,34.855,107.107
-0.460,0.845,0.231,0.649,35.527,110.962
-0.441,0.864,0.281,0.023,33.878,117.076
-0.411,0.861,0.300,-0.130,31.985,126.847
-0.306,0.852,0.336,2.328,27.824,134.504
-0.202,0.819,0.312,9.351,22.618,137.489
-0.073,0.793,0.251,13.176,21.237,131.145
-0.016,0.816,0.202,10.084,23.588,118.450
-0.030,0.836,0.194,7.649,25.725,107.168
-0.057,0.868,0.183,7.611,25.038,102.351
-0.043,0.878,0.156,7.282,23.450,98.878
-0.041,0.892,0.143,4.924,22.901,98.794
0.032,0.874,0.111,-1.611,22.183,96.015
0.058,0.877,0.161,-6.504,23.160,88.824
0.062,0.890,0.180,-8.725,23.458,83.779
0.080,0.905,0.197,-10.405,23.573,80.534
0.102,0.908,0.223,-10.557,22.351,77.176
0.164,0.900,0.224,-10.718,18.954,72.626
0.208,0.896,0.253,-10.244,19.153,63.214
0.219,0.894,0.260,-8.511,17.863,52.550
0.244,0.906,0.252,-7.321,17.595,43.931
0.238,0.906,0.269,-7.435,16.939,33.847
0.203,0.926,0.275,-6.786,15.725,27.084
0.171,0.936,0.278,-4.405,13.481,24.046
0.145,0.950,0.273,-1.870,12.031,22.649
0.113,0.954,0.277,0.824,10.137,23.924
0.111,0.953,0.266,2.519,9.046,26.794
0.157,0.935,0.242,2.702,6.290,27.443
0.209,0.915,0.213,1.565,7.443,24.252
0.244,0.914,0.218,-0.427,8.397,18.931

0.836,0.649,0.332,-15.458,-52.496,-65.626
1.342,0.601,0.139,-36.901,-89.573,-145.947
1.246,0.432,0.016,-56.580,-74.664,-235.702
0.961,0.249,0.141,-76.344,-60.969,-250.137
0.662,0.143,0.245,-77.008,-62.916,-250.137
0.458,0.032,0.236,-68.099,-40.557,-250.137
0.086,0.018,0.436,-62.832,-3.053,-250.137
-0.771,0.266,0.691,-34.229,14.748,-250.137
-1.889,0.792,0.561,-18.038,7.176,-250.137
-2.000,1.251,0.527,-27.183,-22.832,-238.931
-2.000,1.404,0.656,-19.634,-42.656,-56.229
-1.930,1.243,0.703,21.901,-3.107,71.588
-1.574,0.944,0.642,48.626,21.824,138.969
-1.055,0.698,0.519,63.336,22.656,176.046
-0.708,0.578,0.365,68.076,23.023,189.527
-0.490,0.518,0.241,60.252,26.351,185.718
-0.394,0.547,0.184,52.985,34.107,174.031
-0.367,0.621,0.117,38.626,45.252,164.305
-0.372,0.708,0.143,19.511,54.252,156.794
-0.417,0.784,0.268,8.229,58.115,157.061
-0.407,0.800,0.346,7.847,51.855,164.977
-0.302,0.792,0.358,8.580,43.069,171.939
-0.116,0.758,0.328,7.771,32.779,170.191
0.069,0.743,0.269,7.252,28.473,158.771
0.173,0.755,0.235,3.611,28.992,136.160
0.149,0.806,0.250,1.634,29.405,120.450
0.151,0.846,0.260,5.107,28.351,110.458
0.197,0.846,0.225,6.275,26.382,100.084
0.224,0.853,0.182,3.031,24.779,87.015
0.195,0.875,0.199,-2.130,20.099,76.740
0.221,0.881,0.208,-2.000,19.542,68.580
0.213,0.894,0.234,-1.603,17.145,60.260
0.198,0.909,0.219,-1.626,16.679,54.595
0.199,0.913,0.228,-2.290,17.817,51.389
0.231,0.897,0.232,-3.763,17.305,45.405
0.236,0.906,0.251,-5.679,15.023,38.542
0.235,0.907,0.293,-5.214,10.489,32.290
0.242,0.910,0.301,-2.603,5.504,25.237
0.256,0.910,0.273,-1.221,3.702,16.855
0.242,0.911,0.258,-1.450,6.511,7.435
0.187,0.928,0.268,-0.588,9.679,3.595
0.140,0.936,0.287,-0.573,9.603,0.519
0.080,0.949,0.291,2.237,5.664,2.939
0.106,0.943,0.258,3.824,4.344,5.771
0.117,0.943,0.239,2.908,2.580,6.511
0.145,0.927,0.233,1.336,3.511,5.489
0.157,0.924,0.241,0.580,2.847,2.214
0.132,0.937,0.226,1.183,4.443,1.718
0.131,0.929,0.212,-0.450,5.473,1.840
0.123,0.936,0.233,-1.687,5.962,2.061

0.933,0.635,0.211,-25.321,-62.519,-97.786
1.336,0.603,0.103,-45.885,-78.725,-168.031
1.393,0.270,0.047,-65.321,-57.817,-250.137
1.108,0.014,0.160,-63.565,-29.588,-250.137
0.650,-0.136,0.127,-57.107,-4.519,-250.137
-0.084,-0.140,0.407,-49.977,35.702,-250.137
-1.066,0.264,0.660,-28.947,34.710,-250.137
-1.954,0.742,0.578,-16.626,12.878,-250.137
-2.000,1.186,0.480,-22.916,-13.931,-246.458
-2.000,1.358,0.588,-21.107,-39.786,-96.092
-2.000,1.310,0.698,5.588,-19.817,33.649
-1.800,1.015,0.680,39.191,7.931,121.725
-1.278,0.735,0.631,63.565,0.534,183.992
-0.608,0.548,0.373,69.038,-9.710,197.084
-0.327,0.498,0.213,54.649,-4.122,174.771
-0.312,0.568,0.140,43.168,12.298,151.977
-0.360,0.649,0.110,31.634,28.008,144.038
-0.365,0.717,0.132,19.710,39.687,138.802
-0.375,0.785,0.203,8.580,44.420,137.511
-0.379,0.807,0.305,3.847,44.992,139.817
-0.318,0.788,0.352,4.000,36.794,143.595
-0.175,0.777,0.337,4.481,29.992,140.664
-0.090,0.767,0.358,5.817,24.191,132.977
-0.026,0.782,0.324,9.389,20.382,123.473
0.006,0.810,0.276,9.985,18.099,114.275
0.016,0.829,0.264,11.496,19.565,104.763
0.032,0.848,0.229,11.885,19.695,96.542
0.058,0.867,0.185,9.176,18.809,87.412
0.055,0.884,0.173,4.725,18.145,80.328
0.093,0.880,0.194,2.794,16.611,74.145
0.133,0.870,0.182,0.718,17.092,65.863
0.153,0.881,0.193,-3.595,16.229,56.038
0.150,0.896,0.230,-5.450,14.664,47.634
0.129,0.915,0.247,-4.397,12.740,41.664
0.129,0.921,0.256,-3.137,9.374,37.115
0.112,0.924,0.237,-3.557,8.786,33.183
0.129,0.920,0.250,-5.802,11.763,28.733
0.112,0.933,0.283,-5.908,11.137,22.511
0.101,0.936,0.302,-3.290,9.290,19.275
0.098,0.942,0.291,0.023,7.229,18.443
0.115,0.929,0.272,1.748,6.252,15.038
0.084,0.945,0.259,1.962,6.176,12.947
0.098,0.937,0.254,1.542,6.397,11.939
0.090,0.930,0.260,1.878,5.924,9.740
0.082,0.940,0.240,2.176,5.855,9.817
0.090,0.939,0.229,0.580,1.824,9.649
0.094,0.938,0.215,-0.603,3.031,10.038
0.118,0.926,0.221,-1.557,6.351,7.893
0.099,0.940,0.235,-1.519,5.855,7.076
0.076,0.943,0.244,-2.168,5.344,8.176

-0.838,0.346,0.726,26.954,43.794,-250.137
-1.769,0.719,0.534,42.420,4.664,-250.137
-2.000,1.141,0.198,13.153,-41.649,-240.481
-2.000,1.343,0.265,-19.588,-42.740,-93.969
-2.000,1.290,0.591,6.458,-1.809,33.878
-1.746,1.007,0.552,46.542,23.695,125.962
-1.061,0.684,0.439,65.160,11.450,182.168
-0.516,0.527,0.247,65.908,2.603,182.855
-0.282,0.536,0.122,50.687,11.618,155.779
-0.332,0.607,0.074,37.282,25.733,136.405
-0.380,0.683,0.071,26.031,38.771,129.046
-0.444,0.774,0.124,13.611,50.282,126.321
-0.500,0.821,0.209,5.023,53.290,131.878
-0.499,0.850,0.282,0.046,47.427,142.053
-0.392,0.833,0.328,0.756,38.824,150.748
-0.260,0.829,0.318,5.015,35.557,154.000
-0.165,0.812,0.331,8.626,36.527,151.580
-0.161,0.830,0.337,12.847,37.260,147.939
-0.116,0.830,0.304,17.351,32.527,147.840
-0.016,0.829,0.234,18.069,26.565,143.115
0.093,0.818,0.179,14.473,20.260,133.511
0.155,0.819,0.130,11.641,21.855,121.160
0.150,0.849,0.120,8.595,25.695,109.046
0.179,0.854,0.106,7.885,28.794,100.466
0.236,0.865,0.074,3.122,27.824,88.901
0.285,0.854,0.094,-2.580,25.145,73.824
0.230,0.923,0.091,-10.313,19.267,64.840
0.298,0.880,0.173,-11.160,18.870,48.939
0.225,0.925,0.181,-10.847,13.634,40.740
0.221,0.931,0.198,-10.603,14.313,36.939
0.204,0.933,0.213,-9.565,16.725,31.947
0.182,0.944,0.225,-9.389,18.031,28.252
0.176,0.954,0.242,-7.878,19.122,28.214
0.184,0.939,0.261,-7.336,16.473,27.038
0.194,0.942,0.273,-6.046,12.733,25.916
0.242,0.932,0.265,-3.977,8.511,21.916
0.271,0.924,0.245,-2.489,5.916,16.229
0.302,0.911,0.229,-2.496,4.725,7.290
0.309,0.901,0.197,-4.267,5.496,-3.527
0.287,0.905,0.182,-7.229,6.802,-13.405
0.238,0.920,0.186,-11.183,9.954,-22.260
0.065,0.983,0.225,-7.008,10.282,-18.840
-0.008,0.992,0.233,-2.450,5.443,-3.466
0.086,0.963,0.215,-0.779,1.763,8.832
0.156,0.937,0.229,-2.053,-1.061,8.244
0.188,0.939,0.228,-2.084,-0.351,5.061
0.185,0.939,0.234,-0.244,1.008,1.466
0.162,0.946,0.230,1.649,2.267,-0.779
0.134,0.942,0.202,1.443,3.519,-1.802
0.090,0.954,0.215,-0.427,3.351,0.015

