aX,aY,aZ,gX,gY,gZ
-0.369,0.904,0.536,10.824,-16.702,25.450
-0.411,0.898,0.575,23.061,-9.221,42.679
-0.448,0.891,0.637,38.206,-3.489,46.962
-0.700,0.893,0.650,63.527,1.779,64.527
-1.011,0.854,0.626,90.580,-19.725,114.053
-1.033,0.701,0.494,116.252,3.710,181.863
-0.807,0.650,0.314,119.160,35.725,250.130
-0.305,0.539,0.212,113.779,58.656,250.130
0.178,0.530,0.108,96.832,103.351,250.130
0.228,0.595,0.090,75.107,99.580,250.130
0.754,0.439,0.107,56.099,23.855,250.130
1.292,0.561,0.079,41.504,73.962,250.130
1.361,0.611,0.121,37.389,60.977,183.580
1.502,0.643,0.044,27.412,22.489,114.756
1.485,0.648,-0.012,4.275,23.565,42.748
1.392,0.644,0.029,-24.313,4.359,-1.725
1.430,0.634,0.125,-45.931,-2.206,-44.305
1.408,0.613,0.222,-53.840,-13.878,-90.031
1.244,0.597,0.279,-54.985,-17.359,-138.649
0.831,0.635,0.332,-55.977,-28.664,-168.756
0.483,0.692,0.376,-53.466,-36.183,-167.183
0.270,0.743,0.455,-45.534,-45.076,-147.107
0.196,0.810,0.502,-34.740,-55.382,-121.107
0.260,0.837,0.530,-16.473,-54.840,-102.626
0.304,0.833,0.518,6.115,-45.763,-106.321
0.159,0.865,0.370,23.458,-33.649,-113.962
-0.006,0.886,0.248,24.588,-25.015,-109.656
-0.132,0.922,0.177,14.992,-13.183,-89.275
-0.114,0.946,0.182,4.710,-4.969,-64.321
0.006,0.942,0.244,2.412,-8.282,-52.763
0.054,0.939,0.270,8.916,-10.405,-57.214
-0.016,0.936,0.244,14.664,-9.908,-57.962
-0.090,0.945,0.187,15.198,-3.321,-49.855
-0.111,0.960,0.152,11.618,12.672,-36.885
-0.046,0.953,0.183,9.282,19.420,-21.763
0.034,0.954,0.200,9.924,20.359,-14.466
0.131,0.934,0.189,12.084,14.863,-12.702
0.167,0.930,0.166,10.901,5.672,-17.740
0.113,0.922,0.154,8.924,-3.595,-24.244
0.038,0.946,0.124,3.130,-0.061,-20.901
0.008,0.941,0.151,-1.611,15.099,-11.809
0.026,0.949,0.206,-1.092,27.855,-3.000
0.053,0.943,0.231,1.252,35.092,6.252
0.111,0.956,0.250,4.389,32.954,11.282
0.160,0.957,0.259,7.565,22.053,8.863
0.163,0.957,0.249,10.099,13.305,4.336
0.145,0.949,0.235,11.481,7.588,0.374
0.114,0.945,0.230,13.198,7.130,0.969
0.094,0.958,0.235,16.908,11.160,0.176
0.052,0.962,0.217,19.954,11.427,1.473

1.482,0.273,0.078,81.046,-2.481,250.130
2.000,0.216,-0.154,80.107,-61.275,184.817
2.000,0.180,-0.386,55.664,19.092,60.855
2.000,0.236,-0.394,3.725,20.267,-26.069
1.926,0.104,-0.361,-41.802,-4.214,-95.397
1.631,0.163,-0.326,-81.672,18.893,-160.435
1.153,0.301,-0.163,-108.931,10.809,-185.855
0.783,0.340,-0.032,-113.618,0.313,-184.954
0.448,0.492,0.070,-116.954,-15.260,-158.458
0.359,0.537,0.127,-115.473,-40.641,-119.802
0.469,0.578,0.182,-109.969,-28.878,-82.427
0.670,0.629,0.314,-93.870,-18.595,-64.473
0.853,0.623,0.354,-70.031,-29.916,-71.718
0.835,0.658,0.279,-46.557,-19.740,-90.000
0.741,0.738,0.085,-41.099,-6.328,-103.763
0.585,0.752,0.067,-44.366,1.939,-113.740
0.481,0.763,0.095,-50.779,4.725,-119.809
0.321,0.840,0.163,-45.611,-9.817,-110.290
0.266,0.815,0.186,-40.603,-10.542,-94.313
0.254,0.814,0.200,-30.916,-5.359,-75.168
0.362,0.751,0.213,-14.290,16.473,-60.031
0.496,0.850,0.138,-8.580,47.130,-63.504
0.452,0.854,0.112,-11.282,59.824,-72.809
0.398,0.873,0.126,-19.763,56.710,-69.885
0.348,0.852,0.181,-24.137,37.557,-61.885
0.375,0.832,0.201,-23.267,18.679,-54.855
0.427,0.855,0.240,-14.443,9.695,-53.313
0.450,0.839,0.256,-5.038,15.870,-57.550
0.466,0.836,0.250,1.931,27.466,-60.496
0.469,0.863,0.234,10.725,30.870,-64.336
0.473,0.883,0.177,12.069,30.924,-66.290
0.493,0.865,0.172,11.809,33.771,-73.489
0.432,0.870,0.137,10.099,38.069,-82.511
0.354,0.856,0.121,7.641,40.137,-86.038
0.279,0.909,0.074,1.405,42.191,-86.099
0.174,0.941,0.086,-9.870,38.137,-80.344
0.127,0.924,0.140,-20.244,29.420,-67.802
0.128,0.942,0.198,-24.229,21.656,-54.511
0.125,0.931,0.247,-23.496,16.351,-46.443
0.111,0.950,0.274,-20.076,12.824,-37.435
0.118,0.969,0.289,-15.489,14.656,-30.260
0.147,0.963,0.322,-6.931,23.802,-25.985
0.141,0.957,0.356,3.450,30.321,-23.023
0.142,0.950,0.338,13.183,28.183,-19.534
0.189,0.948,0.305,21.710,22.397,-16.824
0.233,0.935,0.270,26.183,21.359,-18.511
0.232,0.938,0.222,27.542,19.107,-22.725
0.215,0.943,0.157,23.557,15.466,-27.305
0.152,0.945,0.126,16.947,14.863,-29.718
0.088,0.957,0.147,9.374,12.405,-23.053

-0.233,1.014,0.447,8.015,-24.267,-8.870
-0.305,0.994,0.287,5.748,91.435,-8.756
-0.194,0.963,0.294,13.427,49.794,25.244
0.200,0.952,0.177,15.588,14.916,25.344
0.470,0.915,0.155,8.718,-54.420,6.672
0.368,0.912,0.076,-1.145,1.176,-23.847
0.116,0.934,0.170,-8.336,-0.344,-26.076
0.084,0.951,0.221,-7.511,-14.389,-21.656
0.057,0.950,0.235,-2.664,-10.969,-18.405
0.045,0.959,0.219,-0.481,-0.031,-13.336
0.066,0.965,0.221,-0.672,5.557,-9.504
0.068,0.971,0.241,-0.336,1.466,-8.908
0.079,0.955,0.245,2.122,0.794,-8.092
0.092,0.955,0.245,5.595,2.519,-9.412
0.104,0.959,0.226,8.023,4.092,-12.275
0.058,0.959,0.191,8.969,2.160,-15.183
0.013,0.967,0.158,6.145,-4.046,-13.870
0.008,0.963,0.163,2.069,-2.634,-11.855
0.003,0.959,0.171,-0.229,3.328,-9.679
0.009,0.964,0.190,-0.069,4.618,-7.382
0.006,0.971,0.196,-0.267,1.893,-6.550
-0.075,0.998,0.288,1.328,-43.252,1.649
0.049,0.970,0.210,1.824,-34.168,-1.130
0.016,0.968,0.218,1.885,-22.954,-1.580
0.101,0.945,0.158,1.832,16.130,-8.069
-0.027,0.961,0.203,1.611,16.687,-3.779
0.123,0.945,0.180,2.794,-1.573,-1.221
0.221,0.935,0.161,2.649,13.924,-12.863
0.098,0.952,0.191,2.328,8.481,-19.779
-0.154,0.977,0.192,2.924,0.344,-13.076
-0.180,1.007,0.162,2.038,-28.321,9.733
-0.050,0.991,0.180,-2.855,-27.099,22.832
0.105,0.966,0.191,-6.145,-10.634,23.687
0.156,0.953,0.196,-7.779,7.779,16.252
0.067,0.972,0.215,-4.580,8.695,10.107
-0.003,0.942,0.194,-4.359,4.382,14.573
0.056,0.945,0.134,-7.229,-1.168,18.885
0.095,0.961,0.123,-13.183,-7.702,17.687
0.058,0.947,0.127,-20.107,-15.282,17.947
0.031,0.926,0.153,-21.344,-24.427,21.557
0.031,0.944,0.168,-22.786,-32.954,28.031
0.085,0.939,0.235,-17.809,-38.336,33.275
0.160,0.916,0.268,-8.122,-29.863,30.382
0.250,1.000,0.221,-2.504,-20.275,20.038
0.276,0.999,0.266,-0.053,-12.702,3.870
0.253,1.024,0.253,2.664,0.351,-9.504
0.202,0.997,0.222,2.191,14.244,-18.008
0.133,0.962,0.214,1.824,12.779,-23.244
0.032,0.953,0.185,-1.534,10.412,-19.252
0.003,0.956,0.185,-9.359,8.000,-8.313

1.211,0.330,-0.261,18.015,-20.947,208.908
1.209,0.357,-0.263,8.420,-3.725,166.481
1.253,0.345,-0.279,-4.084,16.611,132.366
1.344,0.338,-0.238,-27.130,23.573,96.626
1.395,0.334,-0.072,-36.053,26.679,58.321
1.399,0.345,0.029,-36.672,18.954,27.580
1.544,0.317,0.080,-32.725,8.595,-3.145
1.688,0.286,0.094,-23.008,7.122,-41.924
1.760,0.237,0.055,-21.420,-5.305,-89.473
1.735,0.201,-0.007,-30.267,-13.977,-147.939
1.520,0.201,-0.047,-44.954,-22.504,-206.817
1.160,0.258,-0.078,-64.420,-28.359,-248.237
0.793,0.345,-0.086,-88.252,-26.443,-250.137
0.513,0.484,-0.066,-110.992,-17.099,-250.137
0.146,0.593,0.080,-126.267,-2.153,-250.137
-0.127,0.782,0.251,-114.328,26.420,-250.137
-0.300,0.931,0.379,-79.069,51.878,-194.832
-0.274,1.005,0.407,-42.229,55.366,-132.214
-0.098,1.027,0.372,-14.809,47.321,-85.420
0.058,0.988,0.323,-3.328,34.176,-60.695
0.121,0.965,0.314,2.542,22.084,-50.427
0.179,0.969,0.274,6.000,9.328,-39.733
0.248,0.952,0.215,6.420,2.939,-32.824
0.321,0.922,0.173,4.443,2.588,-30.954
0.330,0.916,0.162,1.260,7.580,-34.634
0.334,0.905,0.177,1.664,17.557,-36.992
0.322,0.907,0.181,4.389,22.084,-38.931
0.288,0.919,0.162,5.763,23.916,-41.649
0.222,0.939,0.159,4.122,22.176,-42.046
0.178,0.950,0.157,4.031,18.214,-35.924
0.158,0.939,0.140,0.939,12.008,-28.817
0.200,0.944,0.105,-7.672,4.771,-23.863
0.232,0.943,0.101,-17.008,3.412,-22.565
0.244,0.935,0.142,-23.878,10.076,-22.130
0.302,0.917,0.200,-24.656,17.115,-22.595
0.343,0.902,0.246,-20.847,22.702,-30.634
0.296,0.915,0.257,-15.137,19.504,-41.565
0.167,0.949,0.250,-6.939,19.267,-40.084
0.111,0.958,0.245,-3.214,18.672,-31.832
0.089,0.973,0.230,-3.244,13.076,-24.489
0.103,0.975,0.221,-4.504,10.099,-16.229
0.154,0.957,0.252,-2.305,10.221,-10.603
0.203,0.932,0.260,0.168,6.038,-11.374
0.217,0.923,0.235,0.939,4.008,-15.740
0.202,0.925,0.192,-0.985,4.870,-18.740
0.188,0.939,0.194,-2.641,6.809,-22.015
0.177,0.941,0.195,-4.206,10.939,-22.206
0.190,0.935,0.209,-3.282,17.450,-22.740
0.172,0.935,0.257,2.031,18.237,-25.298
0.133,0.939,0.255,9.527,19.450,-24.344

-0.480,1.136,0.240,35.458,24.443,46.893
-0.679,1.207,0.258,40.420,18.351,85.672
-1.020,1.269,0.367,49.496,8.916,134.947
-1.344,1.073,0.487,76.153,-23.443,218.733
-1.147,0.858,0.408,106.481,-14.214,250.130
-1.278,0.623,0.118,117.534,-38.962,250.130
-0.447,0.244,-0.188,108.580,-57.176,250.130
0.580,-0.182,-0.270,87.901,-27.023,250.130
1.334,-0.190,-0.331,67.405,1.008,250.130
1.847,-0.018,-0.361,41.290,15.954,250.130
2.000,0.060,-0.354,16.405,26.832,250.130
2.000,0.158,-0.315,-6.580,30.962,134.534
2.000,0.196,-0.211,-26.153,23.275,13.733
1.593,0.352,-0.138,-34.443,27.015,-65.557
1.225,0.477,-0.065,-40.916,31.382,-97.603
1.041,0.486,0.011,-44.534,15.359,-107.794
0.998,0.512,0.019,-48.496,-7.443,-116.031
1.083,0.491,-0.008,-58.053,-27.191,-122.580
1.153,0.470,-0.017,-76.160,-38.588,-141.649
1.138,0.441,0.013,-88.420,-46.267,-177.679
0.982,0.467,0.016,-96.107,-40.550,-208.031
0.741,0.505,0.063,-95.931,-27.321,-224.908
0.499,0.595,0.126,-95.504,-14.122,-229.099
0.275,0.704,0.172,-90.397,-4.817,-222.321
0.103,0.803,0.251,-82.160,4.771,-204.389
0.031,0.866,0.292,-61.977,20.733,-177.015
0.015,0.951,0.325,-33.374,39.618,-151.977
-0.019,0.973,0.310,-12.824,47.664,-131.313
-0.044,1.014,0.279,1.847,44.069,-109.069
-0.050,1.018,0.227,10.015,38.618,-90.588
-0.037,1.016,0.166,13.672,30.183,-69.252
-0.045,1.023,0.161,15.061,27.603,-47.267
0.056,0.994,0.141,16.168,24.168,-33.122
0.139,0.974,0.142,19.580,24.046,-26.168
0.218,0.945,0.128,22.863,27.679,-28.237
0.205,0.950,0.135,25.771,31.611,-32.031
0.207,0.937,0.122,29.038,36.893,-38.733
0.165,0.952,0.111,29.870,39.107,-45.969
0.190,0.966,0.052,29.756,46.115,-53.450
0.132,0.927,0.023,27.580,49.053,-53.901
0.144,0.864,0.036,27.603,57.916,-53.595
0.244,0.962,0.032,36.137,102.145,-73.733
0.134,0.967,0.049,25.496,81.038,-81.847
0.029,0.968,0.059,19.695,71.191,-83.855
0.078,0.953,0.072,25.450,72.626,-86.313
0.078,0.962,0.082,21.817,71.405,-112.130
0.034,0.946,0.131,12.397,31.878,-127.458
-0.121,0.935,0.148,14.595,3.489,-131.176
-0.123,0.987,0.121,19.504,-12.481,-127.824
-0.198,0.993,0.088,24.687,-15.458,-115.115

-0.732,0.996,0.119,8.496,-51.756,150.878
-0.698,1.014,0.087,-4.542,-101.756,206.450
-0.885,1.030,0.243,-2.687,-117.702,250.130
-1.143,0.893,0.325,14.565,-160.053,250.130
-1.080,0.640,0.308,48.931,-176.282,250.130
-0.495,0.230,0.185,103.603,-140.679,250.130
0.398,-0.050,-0.167,144.267,-99.687,250.130
1.335,-0.139,-0.548,137.679,-45.664,250.130
2.000,0.033,-0.772,82.275,12.313,250.130
2.000,0.187,-0.675,8.947,25.626,206.702
1.947,0.342,-0.295,-27.489,42.053,71.817
1.365,0.543,-0.023,-28.473,34.824,15.832
0.978,0.636,0.124,-13.786,26.603,2.427
0.948,0.642,0.151,3.511,17.802,2.008
1.153,0.579,0.074,14.901,14.344,-7.511
1.394,0.530,-0.031,14.435,13.962,-33.412
1.530,0.496,-0.039,6.557,9.542,-75.588
1.473,0.478,-0.048,-0.603,-10.115,-118.321
1.296,0.469,-0.120,-12.557,-38.191,-150.023
1.105,0.488,-0.223,-24.336,-40.405,-174.099
0.855,0.518,-0.197,-34.496,-29.076,-186.481
0.662,0.542,-0.139,-41.832,-28.885,-189.847
0.509,0.591,-0.139,-48.038,-32.939,-188.847
0.382,0.666,-0.136,-53.580,-26.443,-183.992
0.234,0.746,-0.107,-55.954,-17.511,-173.107
0.084,0.827,-0.077,-56.519,-8.725,-154.573
0.017,0.899,-0.069,-56.221,-3.412,-129.985
0.035,0.934,-0.043,-51.450,11.092,-102.679
0.110,0.950,-0.020,-46.466,23.061,-79.443
0.214,0.928,0.004,-39.313,33.145,-68.603
0.301,0.941,0.037,-36.282,45.885,-69.427
0.275,0.940,0.101,-34.237,48.947,-74.794
0.204,0.956,0.145,-27.130,48.580,-77.718
0.146,0.982,0.138,-20.511,49.099,-74.565
0.128,0.986,0.135,-16.565,49.756,-69.847
0.134,0.991,0.123,-12.809,53.206,-64.885
0.148,0.979,0.099,-10.809,56.626,-62.992
0.123,0.977,0.100,-11.779,56.534,-63.198
0.067,0.984,0.106,-13.779,51.221,-60.206
0.005,0.999,0.113,-13.305,41.176,-50.718
-0.018,1.007,0.124,-14.099,32.931,-38.015
0.003,1.008,0.144,-12.321,25.267,-25.611
0.056,1.000,0.154,-7.870,22.023,-16.794
0.139,0.973,0.135,-4.511,21.748,-14.863
0.186,0.950,0.131,-2.542,21.618,-21.023
0.143,0.961,0.109,-2.794,22.634,-27.519
0.090,0.984,0.100,-3.908,26.405,-28.168
0.050,1.004,0.101,-4.603,27.649,-22.626
0.068,0.987,0.114,-5.519,24.908,-18.046
0.063,0.984,0.135,-6.137,17.817,-15.076

-0.477,1.137,0.230,19.908,-9.534,91.870
-0.705,1.164,0.340,23.603,-27.756,144.756
-0.947,1.075,0.408,45.908,-44.504,218.924
-0.970,0.892,0.369,74.626,-53.214,250.130
-0.682,0.623,0.260,105.847,-46.855,250.130
-0.083,0.339,0.008,130.038,-27.328,250.130
0.556,0.139,-0.264,128.740,4.527,250.130
0.958,0.133,-0.383,99.702,7.786,250.130
1.341,0.200,-0.467,65.260,-4.183,250.130
1.596,0.240,-0.500,30.000,-8.672,246.565
1.745,0.289,-0.492,3.992,7.351,173.092
1.664,0.352,-0.389,-19.527,30.244,97.069
1.340,0.442,-0.146,-36.542,31.237,43.313
1.076,0.519,0.039,-35.160,30.198,20.176
0.967,0.559,0.121,-26.893,19.519,14.061
1.032,0.562,0.120,-13.504,14.779,11.687
1.182,0.511,0.069,-5.305,11.351,0.427
1.293,0.491,0.034,-4.473,3.183,-19.023
1.347,0.473,0.013,-12.710,-13.191,-43.397
1.332,0.479,0.001,-25.366,-34.061,-70.931
1.268,0.458,-0.019,-35.221,-46.748,-97.756
1.170,0.465,-0.038,-39.908,-49.947,-121.794
1.004,0.462,-0.076,-42.649,-47.137,-140.450
0.832,0.537,-0.116,-48.992,-38.305,-152.260
0.677,0.592,-0.098,-59.145,-34.992,-152.855
0.579,0.653,-0.040,-65.489,-33.198,-147.748
0.488,0.692,0.010,-62.557,-31.389,-139.824
0.420,0.759,0.026,-55.427,-24.153,-129.435
0.397,0.823,0.057,-46.977,-14.718,-118.496
0.400,0.842,0.052,-37.061,-2.557,-109.229
0.418,0.851,0.045,-28.130,10.084,-105.725
0.431,0.847,0.042,-21.092,22.947,-105.290
0.460,0.875,0.061,-19.565,29.664,-111.809
0.389,0.865,0.081,-17.206,28.817,-116.885
0.314,0.895,0.086,-13.412,28.580,-117.641
0.235,0.920,0.066,-11.771,26.519,-113.779
0.170,0.922,0.052,-12.443,21.382,-106.588
0.159,0.942,0.038,-14.137,17.267,-97.565
0.178,0.953,0.010,-16.305,18.542,-91.214
0.156,0.945,0.032,-19.122,20.710,-83.733
0.207,0.938,0.002,-20.237,24.458,-80.802
0.167,0.943,0.017,-23.718,26.130,-79.725
0.118,0.968,0.050,-27.511,23.832,-74.870
0.090,0.982,0.094,-25.870,22.916,-68.870
0.051,0.986,0.123,-18.954,24.229,-59.794
0.061,1.000,0.130,-13.153,28.183,-49.779
0.056,0.979,0.142,-7.046,27.015,-40.008
0.067,0.980,0.126,-3.618,22.092,-34.160
0.063,0.983,0.103,-3.969,15.481,-29.214
0.053,0.994,0.108,-6.023,9.748,-23.137

-0.482,1.115,0.250,30.931,10.244,76.947
-0.767,1.182,0.315,40.809,-9.023,130.221
-1.065,1.107,0.369,59.244,-40.863,210.550
-1.032,0.889,0.293,83.481,-69.458,250.130
-0.500,0.598,0.065,106.489,-53.366,250.130
0.300,0.404,-0.213,107.008,14.832,250.130
0.766,0.324,-0.240,79.122,56.427,250.130
1.158,0.353,-0.226,46.168,59.260,250.130
1.472,0.430,-0.156,23.725,47.786,189.679
1.448,0.522,-0.130,17.031,42.008,109.695
1.260,0.596,-0.115,12.496,42.107,60.718
1.062,0.621,-0.049,8.252,39.939,33.664
0.972,0.641,-0.006,2.244,32.718,19.122
1.000,0.630,0.021,-2.565,27.321,5.992
1.125,0.614,0.041,-7.130,19.275,-8.863
1.217,0.591,0.054,-8.160,8.298,-31.542
1.254,0.587,0.021,-14.679,-11.244,-53.954
1.304,0.544,-0.020,-26.977,-28.221,-81.695
1.224,0.539,-0.044,-38.534,-36.107,-114.000
1.092,0.552,-0.021,-49.618,-40.252,-139.756
0.977,0.563,0.005,-56.420,-42.649,-160.374
0.762,0.593,0.045,-57.053,-44.985,-174.931
0.571,0.667,0.059,-54.153,-40.321,-177.015
0.406,0.731,0.053,-52.328,-33.870,-170.534
0.323,0.784,0.066,-50.679,-28.099,-160.069
0.231,0.834,0.063,-49.038,-23.573,-147.595
0.169,0.883,0.073,-46.832,-17.977,-132.809
0.116,0.919,0.077,-43.870,-12.321,-116.206
0.107,0.942,0.086,-36.573,-2.321,-99.710
0.109,0.977,0.107,-31.687,13.252,-86.969
0.141,0.984,0.171,-24.924,23.092,-76.183
0.165,0.956,0.204,-14.046,21.733,-71.832
0.141,0.958,0.184,-7.443,17.031,-70.634
0.093,0.977,0.140,-6.374,15.878,-66.809
0.037,0.977,0.119,-9.969,13.053,-60.038
0.009,0.998,0.127,-11.931,8.534,-49.611
0.018,0.993,0.130,-10.992,10.122,-38.359
0.030,0.986,0.129,-10.672,10.153,-26.870
0.093,0.984,0.144,-7.878,13.099,-21.290
0.130,0.979,0.151,-5.527,16.382,-18.817
0.141,0.970,0.147,-4.573,14.924,-18.885
0.136,0.974,0.139,-2.878,13.496,-17.756
0.115,0.984,0.124,-3.015,9.779,-16.198
0.117,0.968,0.118,-3.366,6.099,-13.160
0.109,0.968,0.111,-4.282,2.435,-8.427
0.136,0.966,0.110,-3.809,0.901,-5.740
0.167,0.959,0.103,-3.878,-0.817,-6.580
0.152,0.964,0.104,-4.832,0.481,-7.221
0.162,0.969,0.107,-5.092,0.565,-6.695
0.162,0.961,0.121,-4.550,2.443,-7.847

-0.462,1.134,0.253,51.176,37.725,106.061
-0.765,1.158,0.323,61.229,40.397,159.092
-0.825,1.057,0.312,84.779,49.489,234.603
-0.534,0.819,0.190,97.748,52.115,250.130
-0.149,0.585,0.024,94.588,50.237,250.130
0.209,0.474,-0.124,75.450,46.939,250.130
0.540,0.427,-0.214,53.672,57.794,250.130
0.861,0.407,-0.225,23.489,65.924,250.130
1.185,0.409,-0.134,1.252,54.031,244.267
1.420,0.432,-0.083,-3.672,60.389,184.588
1.463,0.434,0.037,-10.947,38.382,122.786
1.406,0.451,0.105,-3.679,32.855,60.344
1.146,0.551,0.081,-0.687,22.267,23.137
0.983,0.594,0.053,-6.634,15.672,10.756
0.967,0.604,0.062,-15.031,9.137,5.641
1.038,0.570,0.090,-22.191,2.275,-2.916
1.101,0.555,0.143,-22.137,-3.847,-16.130
1.130,0.548,0.153,-22.076,-17.626,-34.695
1.131,0.544,0.120,-24.649,-33.397,-52.053
1.126,0.547,0.073,-28.435,-40.870,-70.565
1.087,0.552,0.039,-39.473,-53.405,-87.878
0.991,0.542,0.028,-49.542,-57.931,-105.397
0.875,0.572,0.029,-56.130,-52.924,-121.489
0.734,0.637,0.045,-57.954,-42.733,-128.374
0.640,0.686,0.095,-55.397,-32.511,-126.878
0.608,0.727,0.127,-48.053,-26.527,-123.267
0.611,0.773,0.152,-40.481,-20.206,-121.695
0.586,0.780,0.174,-33.168,-18.710,-122.130
0.558,0.778,0.199,-23.397,-14.893,-125.107
0.480,0.812,0.179,-13.786,-14.641,-131.282
0.371,0.826,0.147,-9.557,-15.015,-132.489
0.283,0.867,0.086,-10.046,-18.344,-129.756
0.235,0.887,0.071,-15.053,-16.618,-121.420
0.226,0.913,0.071,-20.344,-14.786,-114.626
0.183,0.933,0.087,-23.893,-16.305,-108.817
0.126,0.937,0.090,-22.588,-16.679,-99.885
0.076,0.960,0.109,-18.557,-12.641,-90.786
0.044,0.979,0.091,-16.122,-2.908,-74.855
0.072,0.983,0.084,-13.008,5.473,-59.069
0.129,0.962,0.077,-9.771,13.427,-49.893
0.132,0.967,0.091,-11.710,16.176,-45.076
0.130,0.956,0.123,-12.832,12.771,-39.794
0.127,0.970,0.146,-10.863,6.183,-36.206
0.106,0.980,0.151,-5.061,0.802,-28.229
0.125,0.982,0.120,-2.565,-1.122,-20.305
0.171,0.962,0.104,-2.954,-1.099,-17.489
0.194,0.956,0.093,-5.336,1.962,-19.275
0.181,0.951,0.090,-7.977,3.878,-20.435
0.174,0.973,0.104,-10.351,7.015,-19.748
0.155,0.974,0.136,-9.916,7.412,-18.122

-0.434,1.153,0.295,23.260,28.115,41.389
-0.894,1.253,0.469,27.260,29.191,85.122
-1.683,1.268,0.774,59.359,-1.275,174.313
-2.000,0.842,0.792,133.366,-69.389,250.130
-1.055,0.253,0.242,206.954,-121.229,250.130
0.157,-0.188,-0.388,227.870,-94.015,250.130
0.902,-0.229,-0.848,186.412,-48.229,250.130
1.454,-0.091,-1.004,119.603,14.954,250.130
1.792,0.002,-0.975,41.092,77.427,250.130
2.000,0.161,-0.730,-33.107,113.198,186.649
1.852,0.301,-0.232,-67.015,110.840,64.588
1.303,0.452,0.188,-50.634,81.481,2.695
0.923,0.555,0.275,-20.038,54.420,-4.580
0.839,0.579,0.169,-4.229,36.740,12.305
1.039,0.544,0.069,-5.496,33.244,23.008
1.289,0.474,0.074,-15.756,29.802,14.153
1.422,0.431,0.159,-20.427,17.817,-10.374
1.452,0.430,0.180,-18.779,-2.504,-38.344
1.428,0.427,0.137,-18.229,-19.985,-64.656
1.400,0.398,0.091,-17.374,-32.916,-89.214
1.338,0.377,0.030,-18.481,-38.328,-117.664
1.204,0.394,-0.029,-22.893,-41.954,-144.565
1.024,0.431,-0.036,-25.634,-36.725,-162.000
0.849,0.482,-0.053,-25.336,-24.588,-171.115
0.679,0.555,-0.053,-26.305,-18.664,-170.405
0.628,0.625,-0.057,-25.481,-10.160,-162.939
0.629,0.675,-0.046,-22.397,-2.076,-155.466
0.623,0.677,-0.043,-19.786,-0.840,-154.435
0.594,0.687,-0.087,-22.092,-1.076,-159.931
0.501,0.713,-0.080,-27.969,-1.802,-167.183
0.421,0.752,-0.078,-33.718,2.832,-171.260
0.283,0.804,-0.057,-39.824,5.168,-171.153
0.153,0.876,-0.027,-42.947,9.351,-161.916
0.046,0.931,0.019,-44.878,17.229,-145.695
-0.006,0.973,0.085,-41.840,21.443,-125.336
-0.023,0.992,0.148,-33.748,24.160,-105.305
-0.006,1.003,0.159,-22.038,26.198,-85.252
0.022,0.994,0.152,-11.122,25.069,-71.603
0.039,0.984,0.132,-5.374,17.794,-61.702
0.036,0.985,0.112,-2.000,13.214,-53.794
0.029,0.981,0.066,-1.344,10.321,-45.550
0.034,0.988,0.040,-4.115,8.939,-37.878
0.032,0.985,0.052,-5.504,7.672,-30.122
0.046,0.993,0.056,-5.855,7.466,-23.015
0.067,0.977,0.042,-7.153,6.427,-17.397
0.097,0.975,0.059,-9.939,8.573,-15.779
0.070,0.997,0.074,-10.626,10.229,-12.672
0.103,0.993,0.110,-8.672,13.626,-8.000
0.116,0.982,0.120,-6.977,13.107,-6.504
0.137,0.981,0.115,-4.885,11.573,-5.908

-0.557,1.149,0.201,11.771,-26.221,53.954
-1.078,1.249,0.343,12.053,-95.641,122.763
-1.371,1.193,0.377,26.855,-175.198,221.053
-1.543,1.054,0.290,52.672,-211.611,250.130
-1.481,0.668,0.140,83.786,-218.191,250.130
-0.644,0.111,-0.151,127.832,-176.779,250.130
0.231,-0.280,-0.501,154.191,-95.649,250.130
0.971,-0.396,-0.723,137.924,-46.023,250.130
1.436,-0.301,-0.939,92.817,1.611,250.130
1.819,-0.090,-1.026,25.725,53.130,250.130
1.950,0.101,-0.746,-43.702,103.756,192.626
1.719,0.304,-0.220,-73.328,127.252,103.061
1.322,0.430,0.301,-64.794,112.771,60.817
1.143,0.419,0.599,-18.191,92.962,53.802
1.325,0.358,0.530,29.779,72.298,43.595
1.545,0.324,0.351,44.557,58.260,22.420
1.676,0.285,0.245,44.542,45.603,-2.489
1.687,0.246,0.172,39.023,26.985,-34.626
1.600,0.258,0.107,31.794,13.092,-62.649
1.490,0.262,0.062,22.725,-1.298,-85.702
1.379,0.248,0.014,16.901,-11.870,-105.802
1.240,0.261,-0.078,14.137,-12.435,-127.786
1.069,0.288,-0.117,12.786,-6.992,-139.443
0.996,0.345,-0.177,5.496,-4.969,-145.840
0.972,0.390,-0.199,-4.618,-2.298,-149.763
0.976,0.417,-0.206,-14.221,0.351,-156.351
0.925,0.437,-0.172,-21.870,-1.298,-167.641
0.809,0.479,-0.154,-26.290,-8.664,-176.366
0.689,0.544,-0.147,-30.267,-9.977,-179.588
0.559,0.591,-0.139,-36.893,-10.679,-175.466
0.537,0.635,-0.120,-43.435,-2.992,-171.863
0.525,0.676,-0.065,-41.313,16.160,-171.611
0.481,0.698,-0.034,-36.290,29.557,-176.008
0.378,0.740,-0.020,-36.351,32.893,-177.847
0.335,0.792,-0.005,-37.267,34.573,-173.740
0.291,0.809,0.014,-39.641,36.916,-170.000
0.237,0.838,0.048,-43.664,33.527,-167.817
0.136,0.867,0.105,-42.710,31.908,-163.130
0.071,0.914,0.126,-36.779,40.504,-153.908
0.004,0.937,0.150,-29.267,45.267,-141.740
-0.046,0.941,0.173,-22.298,39.214,-125.511
-0.055,0.971,0.155,-19.252,33.573,-111.153
-0.066,0.987,0.165,-20.695,23.450,-96.885
-0.069,0.986,0.166,-16.237,21.542,-86.107
-0.115,0.993,0.172,-10.389,19.206,-74.496
-0.133,1.009,0.160,-6.412,15.290,-60.084
-0.098,0.995,0.138,-3.863,13.702,-46.473
-0.064,0.990,0.132,-3.672,15.374,-38.748
-0.055,0.992,0.139,-4.794,17.443,-32.977
-0.051,0.987,0.146,-3.641,18.412,-28.649

-0.485,1.121,0.244,20.221,26.336,43.229
-0.805,1.210,0.342,22.069,23.298,77.038
-1.219,1.225,0.458,39.221,8.947,141.580
-1.423,1.134,0.490,64.366,-1.496,234.389
-1.329,0.830,0.451,93.504,-8.046,250.130
-0.966,0.538,0.334,111.740,-22.046,250.130
-0.366,0.188,0.148,130.282,-30.374,250.130
0.429,0.045,-0.147,139.290,-1.038,250.130
0.940,-0.011,-0.349,122.595,17.618,250.130
1.320,0.095,-0.506,90.099,38.626,250.130
1.578,0.209,-0.544,52.336,63.145,250.130
1.668,0.304,-0.442,17.183,76.870,178.076
1.580,0.450,-0.242,-1.817,76.672,108.282
1.333,0.532,-0.060,-6.847,59.069,64.237
1.129,0.571,0.010,-8.092,42.947,38.328
0.985,0.593,0.038,-8.328,32.763,29.847
1.018,0.583,0.024,-11.718,23.130,25.779
1.166,0.538,0.020,-15.534,16.626,17.641
1.323,0.515,0.005,-19.931,9.718,-2.000
1.389,0.490,0.014,-27.779,-2.504,-26.435
1.390,0.489,0.035,-37.740,-21.786,-53.573
1.353,0.460,0.051,-41.779,-33.748,-79.443
1.281,0.462,0.031,-45.290,-41.527,-103.840
1.185,0.476,0.022,-50.534,-45.313,-127.649
1.037,0.493,0.028,-55.679,-43.389,-147.656
0.833,0.541,0.048,-59.351,-40.366,-160.809
0.693,0.621,0.073,-58.580,-32.160,-163.962
0.560,0.687,0.119,-55.344,-24.099,-158.565
0.489,0.731,0.148,-48.855,-24.710,-148.046
0.431,0.767,0.135,-36.641,-22.015,-137.947
0.397,0.815,0.102,-26.802,-15.977,-129.359
0.336,0.855,0.083,-20.710,-8.519,-118.176
0.329,0.855,0.101,-17.031,-8.550,-106.733
0.352,0.859,0.078,-13.450,-3.878,-102.229
0.351,0.852,0.061,-12.076,1.802,-102.305
0.335,0.873,0.045,-12.092,2.954,-106.290
0.279,0.886,0.017,-16.740,3.954,-106.939
0.198,0.917,0.033,-20.221,10.107,-105.435
0.150,0.942,0.080,-18.901,20.023,-95.359
0.181,0.937,0.120,-15.748,23.504,-88.954
0.169,0.923,0.135,-11.893,25.885,-90.015
0.148,0.938,0.117,-10.176,27.191,-90.076
0.117,0.943,0.117,-12.504,21.374,-87.000
0.130,0.936,0.098,-12.740,22.939,-86.107
0.120,0.958,0.102,-10.771,28.076,-84.107
0.101,0.952,0.112,-7.878,29.977,-81.313
0.097,0.945,0.088,-6.603,27.389,-80.702
0.047,0.946,0.081,-6.985,23.748,-79.962
0.014,0.969,0.069,-11.542,20.618,-74.145
-0.007,0.963,0.095,-14.885,17.763,-68.344

-0.508,1.120,0.230,24.244,40.076,38.290
-0.984,1.233,0.323,34.672,62.893,83.496
-1.566,1.253,0.460,49.084,63.542,170.260
-1.820,1.023,0.514,74.313,57.504,250.130
-1.226,0.546,0.436,99.824,51.809,250.130
-0.353,0.126,0.323,113.634,47.985,250.130
0.559,-0.039,0.126,124.427,70.817,250.130
1.147,0.004,-0.009,106.405,54.221,250.130
1.682,0.139,-0.109,91.267,37.336,250.130
1.941,0.266,-0.253,71.740,27.557,238.870
1.896,0.376,-0.291,52.321,28.504,124.145
1.487,0.505,-0.311,28.771,17.145,45.046
1.028,0.594,-0.264,11.046,19.748,11.053
0.707,0.638,-0.195,-2.733,20.870,10.473
0.635,0.654,-0.126,-17.611,8.282,31.328
0.891,0.600,-0.083,-26.206,1.573,37.863
1.119,0.559,-0.063,-33.298,-2.939,20.679
1.192,0.573,-0.016,-41.092,-3.573,-7.748
1.084,0.601,0.077,-40.397,-3.115,-30.664
0.983,0.642,0.125,-36.267,-13.031,-43.817
0.950,0.646,0.118,-31.038,-30.443,-50.420
1.021,0.633,0.050,-29.771,-42.412,-63.214
1.042,0.617,-0.009,-35.290,-47.191,-82.191
1.020,0.613,-0.029,-43.672,-51.702,-103.969
0.917,0.610,-0.020,-49.168,-53.000,-122.885
0.786,0.646,-0.013,-54.588,-54.672,-134.771
0.660,0.688,0.019,-56.580,-50.397,-141.061
0.563,0.731,0.059,-52.473,-44.679,-140.122
0.506,0.751,0.045,-46.840,-41.802,-135.130
0.495,0.778,0.032,-45.786,-40.878,-130.679
0.460,0.767,0.010,-46.076,-38.160,-130.389
0.435,0.794,-0.021,-45.198,-23.405,-132.679
0.393,0.832,0.001,-44.382,0.198,-132.779
0.398,0.838,0.034,-42.557,15.969,-132.924
0.393,0.846,0.069,-38.115,31.160,-137.672
0.339,0.855,0.061,-36.763,37.550,-144.198
0.231,0.882,0.084,-38.542,32.611,-148.397
0.135,0.916,0.110,-39.267,23.954,-143.000
0.082,0.926,0.126,-36.588,14.832,-132.664
0.054,0.923,0.124,-30.458,8.824,-121.840
0.037,0.948,0.102,-29.893,8.504,-115.214
-0.010,0.943,0.119,-32.611,9.573,-109.649
-0.083,0.955,0.170,-32.885,7.183,-100.718
-0.144,0.990,0.176,-31.275,-0.794,-90.313
-0.197,1.006,0.190,-25.351,1.695,-73.183
-0.204,1.029,0.209,-17.656,9.710,-53.115
-0.180,1.006,0.212,-9.786,14.252,-36.321
-0.158,1.000,0.210,-4.992,13.679,-25.290
-0.128,0.985,0.183,-2.885,12.550,-18.153
-0.119,0.992,0.167,-1.489,7.802,-10.847

-0.407,1.115,0.321,29.779,4.092,54.137
-0.736,1.192,0.430,41.267,-5.267,89.496
-1.217,1.256,0.575,56.901,-28.565,142.214
-1.786,1.147,0.719,93.427,-75.359,245.366
-1.755,0.686,0.592,177.496,-106.985,250.130
-0.786,0.146,0.037,240.618,-41.855,250.130
0.227,-0.084,-0.451,227.947,58.344,250.130
1.000,-0.075,-0.720,144.176,97.664,250.130
1.708,0.002,-0.710,46.267,99.389,250.130
2.000,0.129,-0.559,-9.168,90.885,250.130
2.000,0.204,-0.191,-27.420,56.878,124.786
1.493,0.429,-0.029,-13.656,16.359,32.992
0.911,0.620,-0.125,-10.832,12.183,10.702
0.593,0.659,-0.047,-19.977,17.450,20.824
0.572,0.640,0.033,-22.931,18.107,41.771
0.836,0.582,0.009,-28.626,13.351,54.069
1.086,0.527,0.043,-36.740,9.061,46.382
1.245,0.540,0.131,-35.427,7.290,27.672
1.316,0.523,0.167,-25.992,5.038,3.748
1.275,0.507,0.148,-16.427,-2.366,-21.603
1.234,0.496,0.076,-12.947,-14.458,-46.496
1.202,0.513,0.002,-18.634,-24.908,-71.298
1.111,0.509,-0.042,-30.237,-35.916,-94.092
1.014,0.523,-0.051,-36.015,-33.863,-112.611
0.886,0.557,-0.011,-36.412,-30.229,-123.481
0.816,0.599,-0.011,-37.053,-32.008,-126.542
0.781,0.619,-0.030,-38.344,-32.458,-127.725
0.784,0.632,-0.022,-38.481,-27.435,-131.878
0.758,0.645,-0.021,-37.679,-23.557,-142.702
0.705,0.664,-0.033,-42.740,-22.344,-156.924
0.589,0.686,-0.022,-46.534,-16.351,-171.641
0.465,0.750,0.015,-48.702,-16.855,-184.260
0.349,0.811,0.058,-46.321,-6.366,-185.427
0.237,0.861,0.091,-42.008,0.107,-175.160
0.178,0.872,0.093,-34.802,3.977,-160.443
0.165,0.898,0.090,-29.649,12.649,-147.626
0.131,0.917,0.081,-28.565,18.901,-137.718
0.104,0.917,0.095,-28.069,20.328,-130.229
0.078,0.925,0.092,-28.313,18.466,-124.878
0.034,0.933,0.101,-27.702,16.664,-121.374
-0.048,0.947,0.106,-24.779,17.947,-112.718
-0.067,0.959,0.097,-22.779,19.061,-101.359
-0.056,0.975,0.089,-22.038,22.679,-90.718
-0.066,0.968,0.091,-22.321,23.618,-82.328
-0.098,0.988,0.115,-23.344,24.466,-74.344
-0.147,0.985,0.152,-21.313,19.931,-63.328
-0.183,1.005,0.172,-18.061,10.916,-49.718
-0.179,1.013,0.180,-14.351,6.786,-34.832
-0.145,1.010,0.185,-12.115,3.695,-21.069
-0.053,0.979,0.194,-8.962,2.313,-17.221

-0.472,1.097,0.272,37.344,-39.962,100.504
-0.834,1.204,0.372,51.542,-80.763,163.366
-1.127,1.157,0.460,84.000,-111.855,250.130
-1.082,0.944,0.391,124.794,-119.954,250.130
-0.750,0.601,0.193,151.305,-105.931,250.130
-0.419,0.338,0.049,172.389,-46.527,250.130
0.226,-0.065,-0.127,202.908,21.084,250.130
1.038,-0.187,-0.475,199.908,94.008,250.130
1.539,-0.060,-0.664,134.183,124.298,250.130
1.661,0.140,-0.557,62.504,88.466,211.122
1.522,0.331,-0.450,27.206,63.015,145.496
1.315,0.416,-0.340,7.702,55.489,108.641
1.086,0.484,-0.187,-15.733,46.053,83.947
1.000,0.468,-0.035,-25.931,36.389,75.206
1.096,0.453,-0.010,-36.237,23.328,67.305
1.324,0.387,0.089,-39.328,16.916,51.504
1.433,0.388,0.082,-33.038,6.000,27.756
1.569,0.348,0.103,-26.008,-13.817,-9.366
1.547,0.313,0.016,-21.939,-32.794,-43.679
1.486,0.295,-0.098,-28.473,-49.031,-72.550
1.435,0.267,-0.199,-42.107,-55.130,-104.260
1.478,0.247,-0.241,-53.954,-41.450,-144.710
1.372,0.201,-0.199,-57.634,-27.962,-184.702
1.234,0.209,-0.226,-62.290,-22.931,-222.229
0.977,0.266,-0.249,-72.374,-19.481,-250.137
0.715,0.375,-0.271,-85.893,-20.061,-250.137
0.425,0.471,-0.204,-96.649,-23.023,-250.137
0.245,0.574,-0.112,-100.313,-16.618,-234.649
0.175,0.709,-0.044,-95.672,-3.580,-212.664
0.103,0.806,0.054,-95.450,3.641,-191.183
0.072,0.841,0.127,-84.435,4.527,-166.206
0.091,0.893,0.150,-71.412,9.458,-145.176
0.106,0.926,0.142,-64.412,17.718,-130.969
0.116,0.935,0.159,-59.588,25.565,-121.282
0.104,0.947,0.185,-53.565,30.267,-113.489
0.080,0.963,0.195,-46.069,34.763,-105.290
0.100,0.981,0.212,-39.786,40.290,-97.931
0.143,0.975,0.235,-29.466,48.160,-93.076
0.169,0.944,0.242,-15.878,55.046,-93.733
0.135,0.920,0.207,-5.176,55.527,-99.267
0.060,0.940,0.143,-3.473,48.496,-100.191
0.006,0.958,0.102,-7.557,44.695,-94.344
-0.014,0.957,0.092,-13.718,38.855,-87.244
-0.061,0.974,0.115,-17.389,30.687,-78.733
-0.080,0.982,0.129,-16.901,24.718,-68.122
-0.096,0.979,0.119,-14.786,23.420,-57.863
-0.113,0.999,0.132,-14.740,20.885,-47.313
-0.113,0.996,0.151,-17.427,15.130,-36.916
-0.098,1.002,0.183,-15.870,10.824,-28.748
-0.071,1.000,0.196,-13.084,9.336,-22.725

-0.445,1.128,0.306,19.435,16.313,41.748
-0.905,1.246,0.446,27.786,10.183,80.023
-1.399,1.288,0.597,47.076,-19.069,161.496
-1.701,1.129,0.688,83.901,-48.382,250.130
-1.445,0.727,0.621,131.168,-92.130,250.130
-0.706,0.276,0.279,162.863,-118.695,250.130
-0.036,-0.038,-0.053,188.443,-104.115,250.130
0.471,-0.146,-0.413,187.687,-75.267,250.130
0.982,-0.105,-0.767,155.504,-30.740,250.130
1.410,-0.034,-0.956,101.374,20.618,250.130
1.734,0.099,-0.956,42.160,84.397,248.962
1.833,0.201,-0.729,-21.290,98.977,146.809
1.663,0.347,-0.353,-53.786,87.366,67.336
1.271,0.472,0.010,-51.771,62.847,26.305
1.053,0.546,0.153,-31.626,39.382,20.504
1.138,0.535,0.119,-17.511,25.031,18.252
1.295,0.480,0.062,-13.336,28.282,-0.435
1.348,0.477,0.081,-15.092,32.496,-28.550
1.335,0.500,0.129,-16.740,28.947,-52.763
1.282,0.512,0.156,-17.435,16.817,-70.901
1.239,0.513,0.155,-15.336,0.573,-86.053
1.190,0.500,0.118,-12.969,-16.198,-99.298
1.127,0.512,0.034,-13.115,-27.427,-114.046
1.000,0.506,-0.071,-18.458,-34.275,-131.053
0.904,0.542,-0.059,-16.344,-25.344,-141.947
0.810,0.570,-0.106,-20.328,-25.763,-150.939
0.705,0.594,-0.136,-27.710,-26.580,-157.366
0.625,0.629,-0.163,-37.885,-24.122,-161.618
0.539,0.685,-0.134,-46.450,-18.389,-164.084
0.411,0.745,-0.098,-51.969,-16.527,-160.687
0.333,0.780,-0.047,-54.908,-13.786,-151.779
0.278,0.835,-0.014,-50.954,-1.824,-145.672
0.199,0.884,0.036,-43.443,5.473,-136.977
0.153,0.917,0.082,-35.748,11.718,-122.641
0.187,0.922,0.105,-28.786,15.573,-108.038
0.229,0.937,0.085,-24.855,19.832,-103.115
0.224,0.911,0.091,-21.153,27.817,-103.794
0.198,0.920,0.077,-25.145,22.298,-107.450
0.103,0.942,0.060,-27.656,23.565,-108.244
0.046,0.960,0.077,-28.473,24.931,-103.282
-0.012,0.990,0.124,-25.244,25.435,-94.160
-0.047,1.005,0.119,-20.901,24.802,-75.267
0.003,0.998,0.112,-15.282,23.634,-59.809
0.042,0.966,0.114,-11.534,22.160,-52.168
0.075,0.955,0.110,-11.252,20.443,-51.069
0.055,0.958,0.093,-12.229,19.023,-51.153
0.041,0.977,0.106,-12.344,19.405,-49.809
0.010,0.985,0.091,-13.031,20.405,-44.397
0.027,0.985,0.116,-13.802,20.786,-40.885
-0.001,0.983,0.125,-12.298,21.527,-37.664

-0.491,1.095,0.255,23.687,12.939,56.282
-0.670,1.125,0.297,28.908,-2.321,100.153
-0.826,1.080,0.323,40.840,-21.542,159.099
-0.867,1.020,0.288,44.802,-45.466,217.427
-0.875,0.886,0.288,50.931,-72.107,250.130
-0.576,0.633,0.219,80.969,-56.603,250.130
-0.085,0.428,0.019,99.611,-11.534,250.130
0.116,0.355,-0.018,99.221,32.527,250.130
0.519,0.295,-0.058,102.008,56.878,250.130
1.023,0.258,-0.147,106.763,72.969,250.130
1.534,0.284,-0.296,94.840,69.573,250.130
1.795,0.327,-0.394,59.786,45.588,197.534
1.836,0.316,-0.389,14.511,20.527,102.840
1.543,0.351,-0.298,-13.908,26.359,33.160
1.238,0.479,-0.153,-36.137,38.260,-0.496
1.084,0.508,0.083,-39.695,42.557,-6.160
1.138,0.499,0.197,-27.397,30.740,-7.282
1.231,0.463,0.145,-20.649,8.290,-17.260
1.326,0.451,0.063,-23.137,-7.893,-36.084
1.372,0.449,0.025,-32.947,-21.863,-59.626
1.370,0.468,0.021,-45.183,-34.489,-83.046
1.268,0.468,0.054,-51.802,-42.458,-107.771
1.125,0.479,0.066,-50.863,-43.328,-134.771
0.921,0.538,0.075,-46.794,-42.870,-152.840
0.723,0.607,0.062,-39.992,-37.878,-158.061
0.597,0.661,0.045,-36.473,-34.099,-154.359
0.514,0.702,0.027,-33.870,-27.924,-148.588
0.464,0.742,0.017,-33.374,-23.481,-143.550
0.428,0.771,0.018,-34.519,-21.863,-139.359
0.366,0.800,0.028,-36.290,-20.519,-136.397
0.277,0.843,0.054,-36.992,-19.718,-130.656
0.180,0.876,0.061,-34.573,-10.786,-121.099
0.173,0.920,0.103,-31.069,-0.290,-106.328
0.175,0.944,0.114,-25.611,7.168,-91.557
0.216,0.936,0.125,-20.603,9.725,-84.061
0.246,0.930,0.128,-14.847,13.771,-79.863
0.254,0.917,0.105,-13.206,13.038,-79.344
0.236,0.932,0.100,-17.832,3.756,-77.954
0.231,0.929,0.090,-19.786,3.489,-78.122
0.174,0.942,0.084,-18.412,10.038,-77.061
0.125,0.974,0.098,-13.298,15.351,-69.427
0.139,0.962,0.100,-5.534,24.191,-58.954
0.180,0.939,0.091,-2.450,22.641,-52.092
0.208,0.921,0.061,-3.550,22.427,-52.802
0.208,0.935,0.036,-7.252,23.405,-56.634
0.141,0.954,0.036,-12.000,27.229,-58.015
0.079,0.962,0.074,-15.389,30.603,-54.260
0.042,0.992,0.109,-14.092,30.221,-45.771
0.070,0.988,0.125,-9.450,34.336,-36.702
0.109,0.980,0.122,-6.031,36.221,-33.641

-0.458,1.111,0.266,20.038,14.405,42.695
-0.738,1.168,0.370,27.031,9.901,83.588
-0.981,1.135,0.450,47.145,-10.229,137.779
-1.138,1.065,0.413,79.763,-18.641,209.168
-1.185,0.867,0.381,116.153,-6.542,250.130
-0.735,0.532,0.203,156.336,27.939,250.130
-0.086,0.301,-0.071,150.366,48.733,250.130
0.350,0.245,-0.237,124.397,71.389,250.130
0.729,0.266,-0.307,88.817,62.756,250.130
1.086,0.323,-0.340,59.878,55.473,250.130
1.312,0.345,-0.357,41.298,59.435,247.176
1.525,0.393,-0.353,20.122,66.580,192.000
1.603,0.425,-0.232,-7.855,67.260,121.305
1.391,0.472,-0.029,-26.832,57.130,60.718
1.166,0.533,0.117,-31.328,41.031,35.359
1.104,0.545,0.167,-30.458,31.511,28.221
1.161,0.519,0.178,-28.389,21.916,22.046
1.247,0.496,0.176,-27.878,15.313,10.794
1.281,0.486,0.187,-27.840,10.122,-6.885
1.275,0.486,0.188,-24.679,-0.443,-25.863
1.263,0.486,0.157,-20.656,-16.092,-43.328
1.297,0.465,0.078,-20.863,-33.641,-64.000
1.278,0.455,-0.017,-28.656,-49.626,-90.084
1.166,0.459,-0.063,-38.794,-55.557,-118.313
1.039,0.491,-0.051,-47.076,-56.237,-137.511
0.886,0.532,-0.037,-56.023,-55.832,-152.153
0.750,0.597,0.002,-62.153,-57.221,-158.672
0.662,0.634,0.032,-64.198,-55.412,-160.847
0.584,0.682,0.053,-62.382,-50.191,-161.931
0.483,0.729,0.090,-57.840,-43.809,-160.244
0.372,0.771,0.118,-52.634,-38.702,-154.802
0.283,0.814,0.117,-51.443,-40.061,-143.878
0.260,0.851,0.116,-50.115,-33.679,-137.779
0.219,0.892,0.126,-45.481,-13.046,-130.527
0.182,0.911,0.133,-40.947,-1.687,-121.092
0.194,0.923,0.159,-36.565,-1.489,-112.214
0.177,0.918,0.169,-31.336,-3.336,-105.733
0.166,0.935,0.157,-25.634,-4.000,-100.626
0.133,0.934,0.158,-21.824,-3.031,-95.237
0.081,0.939,0.143,-19.740,-5.427,-89.038
0.087,0.964,0.123,-14.237,0.389,-80.725
0.077,0.962,0.094,-10.053,12.061,-73.588
0.057,0.974,0.092,-8.321,20.939,-65.908
0.070,0.959,0.091,-10.420,23.802,-59.763
0.061,0.969,0.111,-11.107,20.878,-54.916
0.061,0.974,0.126,-9.130,15.328,-47.214
0.072,0.976,0.118,-6.160,10.038,-38.992
0.101,0.965,0.123,-4.992,5.153,-34.366
0.137,0.958,0.120,-4.374,1.939,-33.679
0.166,0.950,0.094,-6.450,0.855,-36.076

-0.448,1.106,0.282,20.305,10.427,55.435
-0.744,1.176,0.359,25.191,1.351,97.802
-1.064,1.179,0.512,28.466,-18.893,150.748
-1.467,0.997,0.671,63.229,-50.573,243.710
-1.372,0.662,0.613,129.878,-60.450,250.130
-0.788,0.246,0.284,173.176,-49.015,250.130
0.056,-0.096,-0.005,195.649,-18.344,250.130
0.655,-0.174,-0.305,195.366,5.878,250.130
1.266,-0.079,-0.631,163.229,20.924,250.130
1.792,0.036,-0.778,108.794,40.786,250.130
2.000,0.149,-0.800,53.695,60.992,250.130
2.000,0.162,-0.674,-9.855,63.031,163.977
1.961,0.190,-0.330,-56.405,56.840,41.405
1.407,0.353,0.035,-62.298,49.466,-22.412
1.004,0.517,0.227,-47.824,39.733,-33.550
0.918,0.554,0.284,-25.740,24.931,-15.611
1.110,0.510,0.205,-8.947,8.748,-6.893
1.293,0.461,0.060,-8.687,-10.008,-18.992
1.417,0.440,-0.029,-20.137,-25.176,-45.168
1.416,0.414,-0.075,-34.748,-36.046,-73.641
1.361,0.424,-0.061,-44.985,-44.618,-101.374
1.238,0.406,-0.058,-52.718,-49.656,-128.298
1.064,0.412,-0.063,-63.069,-51.336,-154.664
0.827,0.459,-0.053,-68.374,-46.466,-171.908
0.659,0.558,-0.052,-70.687,-27.229,-174.565
0.571,0.626,-0.004,-71.855,-18.893,-167.305
0.528,0.670,0.033,-64.397,-15.275,-156.053
0.529,0.713,0.011,-56.382,-12.069,-148.649
0.504,0.737,0.012,-53.244,-12.710,-143.641
0.475,0.749,0.016,-52.908,-15.908,-142.038
0.473,0.774,-0.006,-54.656,-15.275,-143.420
0.416,0.800,0.024,-53.863,7.481,-149.687
0.358,0.827,0.059,-50.252,19.885,-152.496
0.308,0.843,0.105,-45.366,28.618,-152.252
0.238,0.903,0.139,-33.847,33.939,-145.695
0.201,0.891,0.136,-25.504,37.244,-135.557
0.196,0.898,0.085,-24.489,34.931,-126.855
0.222,0.910,0.050,-29.191,30.244,-123.305
0.181,0.886,0.054,-33.855,27.802,-123.702
0.137,0.891,0.077,-35.023,21.702,-125.618
0.096,0.941,0.106,-31.183,35.389,-127.687
0.009,0.956,0.158,-26.496,36.847,-115.748
0.011,0.956,0.173,-22.374,33.580,-100.282
0.026,0.943,0.161,-17.672,32.817,-91.351
0.007,0.943,0.131,-17.947,29.786,-88.122
-0.042,0.953,0.132,-20.847,25.275,-84.718
-0.073,0.970,0.148,-20.977,25.870,-78.328
-0.133,0.981,0.182,-18.977,23.130,-70.260
-0.177,1.004,0.217,-14.794,19.802,-55.794
-0.158,0.993,0.230,-7.901,17.183,-39.969

-0.423,1.102,0.326,22.153,13.290,31.595
-0.831,1.179,0.497,30.435,-0.962,59.885
-1.362,1.189,0.718,57.405,-29.992,126.916
-1.675,1.045,0.814,111.710,-55.412,242.198
-1.472,0.717,0.648,180.466,-74.099,250.130
-0.714,0.267,0.217,217.405,-80.153,250.130
0.079,-0.011,-0.190,224.595,-51.992,250.130
0.557,-0.035,-0.559,192.031,-30.473,250.130
0.991,0.049,-0.806,145.672,17.756,250.130
1.387,0.136,-0.854,86.878,70.573,250.130
1.679,0.291,-0.753,22.153,102.519,217.534
1.683,0.380,-0.476,-26.099,86.672,118.855
1.412,0.520,-0.181,-36.305,61.130,51.328
1.183,0.595,-0.039,-29.855,50.725,22.107
1.106,0.609,0.016,-22.763,51.931,7.244
1.138,0.599,0.024,-19.595,50.939,-5.603
1.227,0.591,0.030,-22.160,51.344,-22.611
1.346,0.592,0.084,-24.046,58.412,-48.954
1.364,0.575,0.141,-21.450,54.977,-78.191
1.314,0.570,0.157,-15.939,39.198,-107.267
1.222,0.572,0.117,-13.038,14.794,-131.756
1.071,0.558,0.039,-14.473,-10.931,-150.740
0.921,0.561,-0.067,-21.710,-26.824,-165.099
0.746,0.604,-0.105,-31.641,-34.947,-170.573
0.600,0.639,-0.108,-39.695,-41.168,-167.527
0.484,0.671,-0.105,-47.153,-38.023,-160.275
0.402,0.719,-0.081,-56.679,-35.328,-153.695
0.345,0.768,-0.052,-61.725,-31.313,-148.176
0.305,0.817,-0.017,-62.328,-22.573,-140.863
0.261,0.846,0.028,-60.863,-16.985,-132.298
0.232,0.877,0.065,-60.145,-21.237,-123.038
0.181,0.900,0.102,-55.397,-14.519,-117.580
0.153,0.911,0.131,-51.695,-15.740,-111.702
0.097,0.939,0.144,-47.985,-5.626,-109.527
0.042,0.974,0.196,-42.420,4.588,-100.069
0.048,0.972,0.229,-34.511,9.168,-91.397
0.077,0.960,0.227,-27.786,12.679,-86.702
0.066,0.951,0.201,-21.260,16.840,-85.466
0.043,0.961,0.184,-20.435,12.710,-81.557
0.020,0.966,0.160,-19.122,11.267,-77.863
-0.012,0.965,0.145,-17.962,11.824,-73.504
-0.002,0.968,0.145,-15.290,12.542,-67.267
-0.009,0.947,0.150,-13.435,13.817,-61.947
0.021,0.953,0.148,-12.641,14.008,-61.221
-0.003,0.945,0.152,-12.092,15.374,-62.458
-0.061,0.961,0.146,-11.611,15.649,-60.481
-0.109,0.976,0.137,-13.420,15.947,-55.450
-0.150,0.979,0.153,-13.695,12.977,-46.328
-0.151,0.982,0.174,-11.748,11.878,-35.977
-0.139,0.984,0.179,-9.649,11.038,-27.924

-0.413,1.087,0.305,17.840,12.244,41.000
-0.673,1.125,0.421,28.985,3.550,75.237
-1.016,1.173,0.486,41.763,-9.847,124.244
-1.447,1.124,0.595,55.252,-51.496,196.374
-1.625,0.862,0.645,95.206,-83.771,250.130
-1.122,0.503,0.385,153.267,-83.473,250.130
-0.252,0.134,0.038,171.824,-63.328,250.130
0.455,-0.009,-0.199,173.947,-29.634,250.130
0.904,0.023,-0.426,148.786,-25.916,250.130
1.321,0.125,-0.638,115.847,-15.046,250.130
1.607,0.215,-0.771,69.756,8.672,250.130
1.801,0.334,-0.722,19.740,51.130,175.221
1.610,0.448,-0.429,-22.656,76.344,74.931
1.220,0.569,-0.095,-38.122,59.969,22.809
0.931,0.649,0.095,-27.374,41.504,11.641
0.900,0.659,0.112,-15.832,22.084,19.282
1.082,0.606,0.078,-7.985,12.992,17.153
1.210,0.563,0.008,-10.145,6.527,-3.031
1.195,0.573,-0.042,-18.427,1.008,-25.595
1.199,0.564,-0.044,-32.221,-6.718,-46.664
1.132,0.579,-0.042,-42.824,-13.840,-63.573
1.057,0.585,0.002,-45.519,-18.985,-78.458
0.999,0.578,0.006,-44.557,-22.344,-93.122
0.939,0.581,-0.016,-45.992,-30.015,-105.832
0.868,0.608,-0.035,-45.420,-28.870,-117.015
0.830,0.643,-0.062,-49.344,-25.710,-125.420
0.793,0.648,-0.046,-51.435,-17.473,-133.817
0.761,0.646,-0.035,-52.115,-11.511,-145.420
0.690,0.673,0.003,-50.901,-5.695,-155.840
0.553,0.710,0.016,-50.198,-0.443,-162.466
0.441,0.777,0.047,-47.336,4.328,-160.427
0.342,0.800,0.092,-45.985,5.053,-155.206
0.289,0.844,0.113,-43.802,5.420,-149.748
0.229,0.864,0.130,-38.481,9.679,-143.130
0.165,0.875,0.138,-34.076,14.672,-133.275
0.176,0.911,0.137,-31.237,16.397,-126.191
0.146,0.911,0.111,-26.947,24.863,-120.611
0.114,0.924,0.103,-24.802,28.786,-115.511
0.082,0.926,0.102,-24.939,30.863,-108.634
0.073,0.929,0.119,-25.855,29.427,-102.038
0.062,0.929,0.120,-24.260,30.878,-99.313
0.017,0.932,0.117,-25.771,28.321,-96.695
-0.027,0.949,0.121,-26.626,26.817,-92.511
-0.077,0.960,0.117,-25.626,31.305,-85.496
-0.125,0.975,0.142,-25.427,32.420,-74.076
-0.120,0.987,0.157,-24.618,35.748,-62.847
-0.108,0.983,0.191,-22.985,36.092,-50.298
-0.084,0.969,0.229,-17.504,33.260,-44.221
-0.090,0.980,0.244,-12.374,28.115,-38.885
-0.100,0.982,0.237,-9.527,21.305,-32.634

-0.424,1.096,0.374,3.931,6.695,15.565
-0.765,1.163,0.555,9.336,-9.351,45.977
-1.203,1.210,0.767,34.000,-38.885,95.336
-1.752,1.164,0.974,90.687,-63.015,188.504
-2.000,0.879,0.964,173.473,-76.771,250.130
-1.462,0.336,0.619,250.130,-85.489,250.130
-0.254,-0.220,0.122,250.130,-78.015,250.130
0.765,-0.265,-0.531,250.130,-70.870,250.130
1.390,-0.163,-1.009,203.206,-24.710,250.130
1.732,0.044,-1.135,118.191,48.588,250.130
1.834,0.205,-1.025,35.603,79.321,219.473
1.853,0.341,-0.704,-22.687,96.809,106.756
1.383,0.516,-0.295,-44.313,88.237,29.237
0.892,0.694,0.000,-34.878,72.763,4.809
0.669,0.743,0.105,-18.206,56.160,16.336
0.722,0.733,0.079,-8.779,42.786,32.305
0.934,0.690,0.004,-10.779,33.924,36.084
1.189,0.650,-0.020,-24.282,23.397,17.863
1.264,0.636,0.010,-31.420,15.679,-9.458
1.244,0.660,0.020,-33.870,9.779,-34.954
1.245,0.614,0.025,-38.298,-1.870,-58.183
1.233,0.607,0.042,-37.298,-7.534,-87.336
1.118,0.590,0.027,-36.122,-16.725,-112.870
1.007,0.594,-0.001,-35.351,-24.847,-135.931
0.895,0.602,-0.041,-36.481,-21.145,-154.130
0.738,0.627,-0.035,-38.893,-22.557,-166.153
0.635,0.656,-0.033,-40.885,-20.511,-170.298
0.535,0.678,-0.044,-42.901,-15.053,-173.435
0.435,0.725,-0.042,-45.557,-10.229,-173.397
0.357,0.760,-0.058,-48.763,-4.931,-169.809
0.329,0.802,-0.063,-51.947,9.908,-166.321
0.262,0.848,-0.025,-55.786,21.099,-162.282
0.220,0.856,0.046,-53.145,27.695,-155.817
0.193,0.883,0.111,-44.702,29.061,-150.160
0.151,0.894,0.129,-34.092,30.511,-144.542
0.110,0.887,0.126,-28.580,26.237,-140.580
0.087,0.898,0.108,-27.313,25.137,-139.893
0.014,0.911,0.102,-27.756,24.824,-141.664
-0.125,0.948,0.125,-33.641,19.565,-133.565
-0.221,0.970,0.165,-31.008,25.534,-119.550
-0.268,1.003,0.176,-26.656,26.099,-98.427
-0.240,0.997,0.188,-21.084,28.489,-81.130
-0.202,0.979,0.197,-15.924,27.137,-70.344
-0.187,0.972,0.205,-10.191,22.748,-63.481
-0.170,0.965,0.191,-7.695,19.588,-58.519
-0.195,0.962,0.166,-6.504,16.183,-55.214
-0.221,0.969,0.146,-6.817,12.718,-49.481
-0.235,0.975,0.144,-7.023,12.458,-42.817
-0.229,0.967,0.140,-8.328,12.237,-36.832
-0.241,0.974,0.147,-9.511,10.443,-31.130

-0.452,1.080,0.297,22.053,5.473,24.275
-0.873,1.182,0.463,29.809,4.832,47.595
-1.455,1.209,0.671,63.015,-6.733,118.229
-1.819,1.151,0.765,110.618,-27.397,235.687
-1.854,0.807,0.806,168.695,-74.771,250.130
-1.055,0.225,0.439,229.359,-112.679,250.130
-0.106,-0.073,-0.221,241.450,-107.069,250.130
0.351,-0.060,-0.750,206.321,-71.153,250.130
0.867,0.018,-1.043,137.511,-8.473,250.130
1.344,0.121,-1.009,62.824,70.221,250.130
1.678,0.250,-0.767,4.183,120.794,227.168
1.641,0.420,-0.421,-28.695,127.634,119.664
1.303,0.592,-0.110,-33.137,93.389,57.115
1.067,0.691,-0.013,-24.664,59.382,34.305
0.977,0.707,-0.027,-19.229,39.756,25.084
1.032,0.665,-0.061,-23.389,35.481,14.435
1.080,0.656,-0.027,-34.305,36.718,-2.298
1.077,0.678,0.096,-38.832,32.565,-16.023
1.138,0.702,0.165,-37.145,20.664,-27.160
1.230,0.710,0.186,-30.847,5.824,-44.618
1.299,0.701,0.153,-24.107,-8.061,-71.450
1.284,0.641,0.082,-15.405,-16.229,-109.985
1.120,0.602,-0.016,-12.817,-19.565,-151.710
0.855,0.621,-0.083,-14.015,-10.603,-182.206
0.607,0.646,-0.122,-26.214,-8.908,-195.176
0.461,0.668,-0.110,-34.359,-3.000,-195.840
0.338,0.689,-0.105,-40.237,4.252,-192.802
0.254,0.765,-0.105,-45.069,9.878,-186.023
0.172,0.809,-0.077,-47.740,14.405,-172.595
0.128,0.849,-0.088,-55.656,8.809,-154.397
0.145,0.888,-0.063,-64.656,8.313,-140.580
0.114,0.905,0.015,-64.527,16.260,-128.656
0.086,0.939,0.073,-59.511,21.924,-113.588
0.104,0.955,0.132,-53.779,24.992,-101.573
0.142,0.953,0.167,-48.458,24.321,-95.176
0.125,0.968,0.177,-43.565,24.527,-95.260
0.052,0.991,0.212,-38.916,23.137,-88.550
0.020,1.001,0.220,-33.634,20.397,-80.031
0.016,0.984,0.244,-26.282,18.931,-71.618
0.053,0.968,0.248,-17.351,15.687,-67.076
0.032,0.962,0.243,-11.519,9.221,-69.672
-0.009,0.962,0.212,-6.695,3.351,-68.756
-0.067,0.955,0.179,-5.710,-0.466,-67.183
-0.090,0.964,0.150,-7.206,-1.649,-64.374
-0.118,0.948,0.140,-8.847,-0.626,-61.145
-0.159,0.956,0.131,-11.015,1.221,-56.779
-0.178,0.961,0.151,-13.794,3.137,-51.176
-0.193,0.961,0.182,-13.244,1.985,-46.038
-0.212,0.960,0.192,-12.183,0.641,-37.863
-0.209,0.964,0.196,-11.298,-1.015,-33.214

-0.472,1.070,0.292,14.153,4.817,37.252
-0.814,1.113,0.406,16.405,-5.076,71.084
-1.175,1.152,0.534,24.817,-28.389,133.176
-1.353,1.054,0.646,52.756,-62.061,227.496
-1.563,0.812,0.729,109.962,-79.099,250.130
-1.116,0.354,0.529,195.267,-57.145,250.130
-0.000,-0.106,0.017,231.595,-13.756,250.130
0.749,-0.098,-0.428,209.893,26.603,250.130
1.111,0.088,-0.722,143.107,64.382,250.130
1.429,0.249,-0.739,76.260,73.008,250.130
1.648,0.368,-0.631,24.489,74.763,211.229
1.604,0.442,-0.410,-9.023,78.076,117.176
1.205,0.541,-0.135,-23.954,60.985,53.962
0.905,0.634,-0.002,-24.725,48.916,37.947
0.879,0.656,0.037,-26.405,44.115,42.038
1.055,0.608,0.069,-29.336,35.076,40.214
1.267,0.563,0.095,-30.107,27.153,22.710
1.337,0.547,0.126,-30.053,15.588,-1.954
1.332,0.555,0.130,-29.374,0.511,-26.244
1.276,0.558,0.114,-28.076,-11.794,-46.092
1.259,0.574,0.082,-29.061,-18.473,-66.221
1.217,0.550,0.066,-31.221,-26.458,-90.252
1.148,0.554,0.033,-33.511,-37.473,-113.580
1.030,0.551,-0.011,-38.321,-48.328,-138.397
0.972,0.573,-0.061,-47.458,-58.802,-157.901
0.879,0.575,-0.092,-60.298,-60.794,-176.496
0.744,0.595,-0.062,-69.756,-53.710,-194.092
0.583,0.618,-0.024,-73.718,-44.359,-204.435
0.404,0.672,0.020,-75.641,-33.481,-207.779
0.246,0.735,0.071,-74.641,-27.168,-202.015
0.118,0.804,0.126,-68.267,-21.145,-187.580
0.035,0.869,0.158,-56.107,-12.809,-167.847
0.033,0.887,0.158,-48.481,-6.885,-149.153
0.036,0.902,0.158,-46.191,-1.557,-137.885
0.018,0.914,0.181,-44.702,5.756,-130.267
-0.014,0.941,0.203,-42.137,10.672,-125.420
-0.068,0.958,0.238,-35.183,18.969,-117.374
-0.129,0.970,0.237,-25.794,22.122,-105.229
-0.162,0.970,0.220,-18.069,24.153,-90.153
-0.157,0.985,0.194,-14.832,22.489,-75.122
-0.159,0.977,0.186,-11.481,21.519,-64.298
-0.142,0.980,0.187,-7.076,23.160,-52.954
-0.094,0.963,0.167,-4.534,26.366,-45.229
-0.071,0.950,0.150,-4.855,28.855,-43.252
-0.083,0.964,0.148,-7.748,28.832,-41.847
-0.095,0.972,0.147,-11.351,29.008,-37.939
-0.116,0.975,0.161,-14.107,27.313,-33.023
-0.163,0.987,0.200,-13.725,19.397,-24.672
-0.134,0.987,0.217,-10.160,14.107,-14.359
-0.101,0.973,0.223,-7.229,10.916,-11.229

-0.517,1.072,0.237,32.008,40.031,48.802
-0.854,1.142,0.319,39.870,43.336,92.053
-1.156,1.156,0.417,51.985,37.603,169.679
-1.208,1.056,0.482,60.374,15.229,250.130
-1.044,0.779,0.499,77.061,-29.000,250.130
-0.526,0.470,0.412,101.183,-64.214,250.130
0.010,0.261,0.208,137.992,-59.565,250.130
0.328,0.177,-0.088,155.733,-20.542,250.130
0.708,0.169,-0.357,143.160,23.473,250.130
1.157,0.222,-0.540,101.153,62.000,250.130
1.491,0.324,-0.519,54.542,83.015,250.130
1.640,0.423,-0.419,3.321,66.443,177.969
1.552,0.443,-0.227,-23.107,44.344,104.313
1.340,0.500,-0.070,-38.763,8.000,51.756
1.187,0.570,0.007,-39.252,3.725,22.702
1.118,0.589,0.055,-40.695,6.420,5.908
1.095,0.591,0.094,-40.382,13.763,-9.550
1.114,0.605,0.134,-39.969,17.771,-23.947
1.162,0.604,0.193,-37.053,8.183,-42.237
1.194,0.618,0.221,-31.679,-7.397,-63.908
1.156,0.608,0.200,-24.183,-26.611,-87.130
1.054,0.586,0.125,-16.496,-37.000,-107.107
0.950,0.589,0.050,-13.664,-40.321,-121.779
0.870,0.609,-0.009,-18.656,-41.641,-133.229
0.788,0.630,-0.064,-26.000,-36.366,-145.908
0.688,0.666,-0.037,-34.092,-28.740,-155.916
0.606,0.714,0.015,-34.847,-24.206,-158.450
0.552,0.727,0.054,-30.031,-20.725,-157.298
0.523,0.740,0.051,-24.450,-17.992,-159.359
0.431,0.753,0.028,-19.290,-12.641,-166.382
0.274,0.831,-0.001,-16.382,-4.382,-168.298
0.072,0.894,0.005,-17.954,4.229,-152.061
-0.003,0.948,0.024,-19.611,9.260,-126.008
0.026,0.964,0.044,-19.542,16.160,-100.344
0.096,0.957,0.066,-20.282,18.542,-88.290
0.134,0.945,0.096,-18.771,16.389,-85.008
0.119,0.934,0.105,-15.504,12.214,-83.000
0.078,0.949,0.091,-12.351,9.130,-79.565
0.044,0.966,0.059,-10.725,14.718,-73.992
0.029,0.970,0.061,-12.901,17.924,-66.786
0.028,0.975,0.069,-15.885,21.779,-61.786
0.035,0.987,0.080,-19.023,22.618,-56.794
0.036,0.981,0.118,-19.702,23.122,-53.550
0.068,0.980,0.146,-16.863,21.168,-50.298
0.101,0.963,0.152,-10.916,21.634,-51.573
0.066,0.967,0.132,-7.603,22.275,-53.443
0.011,0.974,0.120,-6.702,19.221,-51.221
-0.007,0.995,0.108,-6.634,18.687,-45.511
0.005,0.992,0.133,-7.328,18.382,-39.733
0.004,0.990,0.145,-7.214,17.221,-37.763

-0.500,1.154,0.221,2.015,15.336,21.878
-1.107,1.317,0.417,-9.405,3.122,52.221
-1.820,1.339,0.671,-8.351,-26.405,137.298
-2.000,1.073,0.931,46.870,-41.672,250.130
-2.000,0.548,1.083,149.496,-41.580,250.130
-0.484,-0.310,0.761,246.275,-62.847,250.130
1.044,-0.612,0.116,250.130,-24.649,250.130
1.960,-0.346,-0.744,250.130,17.053,250.130
2.000,-0.079,-1.184,213.000,53.069,250.130
2.000,0.023,-1.301,78.748,57.733,202.542
2.000,0.105,-0.930,-26.634,27.771,36.183
1.412,0.296,-0.481,-59.290,39.473,-78.382
0.647,0.590,-0.196,-56.435,51.962,-97.290
0.262,0.729,-0.046,-46.985,38.679,-48.763
0.361,0.737,-0.031,-37.145,16.573,13.939
0.785,0.647,-0.108,-37.282,-2.962,47.069
1.152,0.562,-0.142,-44.733,-13.191,35.969
1.313,0.522,-0.110,-46.443,-14.038,5.397
1.329,0.510,-0.127,-46.397,-16.206,-29.046
1.252,0.520,-0.147,-50.290,-19.504,-62.229
1.131,0.501,-0.167,-56.542,-21.023,-94.718
1.009,0.515,-0.170,-66.351,-21.122,-126.130
0.841,0.573,-0.145,-76.992,-15.641,-146.603
0.717,0.615,-0.107,-84.076,-8.176,-153.771
0.651,0.653,-0.043,-86.603,-2.901,-157.183
0.595,0.681,0.042,-80.366,1.237,-159.153
0.569,0.733,0.070,-72.832,0.656,-157.504
0.525,0.761,0.084,-65.748,-0.626,-157.206
0.468,0.776,0.100,-61.496,-2.931,-159.924
0.413,0.801,0.092,-59.756,-0.542,-163.221
0.366,0.803,0.151,-49.466,9.374,-167.595
0.337,0.818,0.159,-38.443,19.015,-173.473
0.240,0.862,0.136,-34.160,13.122,-178.076
0.183,0.870,0.115,-32.466,11.840,-180.931
0.081,0.891,0.124,-31.481,15.473,-180.885
0.003,0.909,0.127,-30.076,17.985,-176.725
-0.098,0.954,0.146,-26.595,19.870,-164.107
-0.139,0.936,0.192,-17.656,20.534,-148.634
-0.174,0.965,0.161,-7.794,20.427,-132.611
-0.225,0.979,0.104,-5.092,16.756,-113.565
-0.231,1.019,0.076,-9.847,17.855,-89.817
-0.218,1.007,0.104,-16.260,18.344,-73.916
-0.202,0.984,0.166,-16.595,14.641,-64.840
-0.225,0.992,0.181,-12.275,11.908,-59.267
-0.250,1.007,0.163,-8.626,10.824,-50.595
-0.265,1.007,0.151,-6.351,10.947,-38.313
-0.249,1.003,0.135,-5.359,13.954,-29.290
-0.237,0.991,0.142,-6.695,15.443,-21.893
-0.229,0.995,0.172,-4.847,12.550,-14.588
-0.208,0.989,0.172,-0.931,9.832,-8.481

-0.516,1.098,0.214,10.191,5.824,40.771
-0.818,1.153,0.264,9.542,-3.496,72.550
-1.271,1.226,0.350,11.893,-22.504,133.969
-1.719,1.142,0.463,15.656,-50.992,231.809
-1.820,0.816,0.570,44.672,-85.214,250.130
-0.959,0.335,0.393,106.962,-82.557,250.130
-0.050,0.085,0.081,124.115,-85.908,250.130
0.417,-0.068,-0.141,135.466,-65.756,250.130
1.115,-0.030,-0.441,138.702,-16.252,250.130
1.683,0.088,-0.739,100.878,31.580,250.130
2.000,0.231,-0.751,34.534,50.198,232.779
1.828,0.363,-0.490,-21.458,47.557,117.015
1.178,0.558,-0.112,-38.832,30.992,56.618
0.836,0.635,0.023,-25.634,32.084,51.374
0.796,0.630,0.104,-16.511,33.863,55.412
0.920,0.593,0.137,-6.481,28.511,57.427
1.151,0.558,0.074,-3.137,19.198,47.076
1.348,0.529,-0.004,-7.511,12.893,23.099
1.377,0.541,0.000,-13.473,6.702,-5.733
1.375,0.519,-0.028,-17.046,1.489,-36.557
1.292,0.521,-0.036,-24.573,-7.687,-62.763
1.207,0.522,-0.078,-35.855,-21.122,-86.313
1.110,0.497,-0.074,-41.183,-23.947,-109.053
0.969,0.509,-0.081,-47.733,-20.366,-129.725
0.818,0.564,-0.057,-55.420,-15.740,-140.580
0.677,0.615,-0.008,-59.389,-10.221,-142.504
0.592,0.670,0.045,-58.076,-3.901,-138.702
0.543,0.704,0.070,-53.511,0.481,-132.718
0.535,0.747,0.090,-47.275,2.527,-128.107
0.513,0.788,0.094,-42.565,3.718,-124.626
0.478,0.801,0.105,-40.580,1.053,-122.931
0.425,0.812,0.127,-36.557,2.656,-122.374
0.355,0.851,0.138,-35.000,3.092,-121.855
0.275,0.883,0.148,-34.847,6.031,-119.977
0.189,0.914,0.180,-31.145,9.511,-112.565
0.124,0.941,0.196,-23.473,18.802,-101.107
0.111,0.960,0.188,-16.305,25.908,-87.992
0.152,0.943,0.177,-10.275,32.198,-78.924
0.201,0.932,0.156,-4.870,40.313,-75.389
0.229,0.914,0.130,-3.817,44.695,-77.733
0.198,0.924,0.131,-5.565,42.023,-81.298
0.149,0.926,0.131,-7.672,36.008,-80.214
0.093,0.949,0.133,-9.695,27.344,-75.855
0.058,0.956,0.135,-9.137,25.901,-68.588
0.049,0.960,0.137,-7.878,28.702,-61.969
0.083,0.952,0.123,-5.870,34.282,-56.198
0.138,0.946,0.122,-4.244,44.794,-56.855
0.150,0.927,0.136,-5.565,46.809,-61.389
0.135,0.936,0.147,-7.679,42.992,-65.809
0.071,0.951,0.155,-10.290,33.198,-66.206

-0.459,1.082,0.283,5.977,4.244,36.443
-0.642,1.105,0.289,13.557,2.626,66.809
-0.839,1.125,0.286,23.916,5.229,109.221
-1.144,1.100,0.324,41.183,15.084,167.634
-1.283,0.966,0.319,61.817,23.504,250.130
-0.968,0.703,0.318,77.420,11.687,250.130
-0.305,0.396,0.239,95.863,15.244,250.130
0.261,0.252,0.071,94.298,-5.496,250.130
0.647,0.227,-0.092,85.771,-24.901,250.130
1.004,0.285,-0.308,75.840,-13.603,250.130
1.173,0.355,-0.463,45.191,7.710,250.130
1.365,0.465,-0.429,16.527,50.336,202.252
1.267,0.545,-0.264,-16.702,65.290,148.290
1.192,0.609,-0.016,-39.000,60.008,103.511
1.088,0.642,0.181,-39.740,51.130,76.695
1.098,0.625,0.279,-31.275,36.985,59.786
1.162,0.606,0.279,-22.672,27.099,38.405
1.287,0.594,0.257,-20.137,23.076,15.237
1.353,0.567,0.240,-19.221,17.183,-13.176
1.277,0.539,0.235,-20.168,1.878,-42.305
1.227,0.537,0.196,-21.779,-12.847,-64.046
1.194,0.519,0.135,-27.573,-24.168,-85.466
1.095,0.520,0.111,-35.695,-31.076,-108.206
0.881,0.552,0.128,-43.519,-33.794,-124.733
0.673,0.630,0.146,-45.588,-32.053,-125.511
0.570,0.676,0.156,-43.511,-30.290,-114.802
0.611,0.718,0.151,-39.366,-27.351,-105.656
0.688,0.724,0.160,-35.885,-22.252,-106.412
0.742,0.719,0.173,-31.489,-19.069,-115.710
0.719,0.703,0.197,-25.252,-16.855,-130.092
0.614,0.729,0.172,-19.809,-14.542,-145.221
0.437,0.754,0.162,-21.267,-13.252,-154.084
0.222,0.843,0.152,-26.824,-18.740,-151.542
0.080,0.894,0.194,-26.863,-13.290,-134.298
0.045,0.936,0.222,-20.817,-1.496,-111.847
0.113,0.931,0.208,-11.519,11.992,-96.458
0.184,0.927,0.184,-6.107,23.046,-91.855
0.201,0.907,0.179,-2.725,26.198,-92.092
0.212,0.904,0.160,-3.038,25.695,-92.885
0.158,0.928,0.146,-3.435,23.855,-96.481
0.081,0.935,0.127,-4.046,24.015,-91.939
-0.003,0.940,0.145,-5.000,17.802,-84.244
-0.047,0.964,0.128,-6.840,13.763,-71.985
-0.046,0.971,0.115,-9.786,13.931,-59.260
-0.009,0.981,0.113,-12.061,20.435,-49.420
0.024,0.961,0.149,-10.931,28.198,-43.275
0.044,0.956,0.172,-8.962,32.504,-41.252
0.035,0.958,0.196,-6.107,34.168,-39.466
0.014,0.956,0.195,-3.656,30.282,-36.656
0.007,0.965,0.199,-2.374,21.695,-33.198

-0.415,1.085,0.325,-5.718,8.832,17.878
-1.110,1.204,0.494,-9.901,3.550,52.557
-1.869,1.165,0.685,4.443,-4.695,154.519
-2.000,0.861,0.835,70.779,40.374,250.130
-1.166,0.455,0.814,158.092,91.565,250.130
0.369,-0.037,0.583,206.397,92.031,250.130
1.219,0.019,0.135,215.466,49.107,250.130
1.772,0.137,-0.324,188.870,-3.359,250.130
2.000,0.234,-0.701,136.763,-14.870,239.771
1.933,0.312,-0.825,64.298,11.763,106.893
1.328,0.503,-0.640,-7.382,44.603,7.260
0.720,0.701,-0.281,-55.672,49.008,-11.695
0.545,0.744,0.048,-64.466,43.092,8.969
0.760,0.705,0.229,-48.519,24.450,30.145
1.099,0.609,0.174,-30.344,5.641,19.672
1.237,0.585,0.049,-32.031,-9.252,-13.305
1.226,0.603,-0.009,-47.092,-18.672,-45.122
1.202,0.582,0.019,-62.389,-29.504,-71.809
1.143,0.565,0.072,-70.153,-33.817,-102.405
1.013,0.559,0.118,-70.802,-32.588,-128.397
0.821,0.586,0.144,-71.855,-32.580,-148.351
0.579,0.664,0.184,-72.313,-36.977,-156.053
0.423,0.754,0.226,-64.672,-34.214,-149.076
0.340,0.800,0.235,-54.824,-27.947,-132.786
0.357,0.838,0.237,-47.313,-22.855,-118.305
0.402,0.852,0.236,-43.336,-17.160,-110.298
0.403,0.848,0.245,-41.137,-14.916,-109.412
0.360,0.855,0.268,-36.069,-14.908,-110.473
0.315,0.875,0.258,-28.763,-10.382,-111.466
0.244,0.900,0.253,-25.527,-8.214,-112.397
0.170,0.908,0.249,-21.473,-8.176,-109.679
0.144,0.926,0.229,-15.863,-2.107,-105.748
0.104,0.940,0.206,-13.435,0.992,-99.412
0.087,0.935,0.198,-12.214,3.275,-92.053
0.063,0.932,0.186,-10.702,3.710,-91.878
0.033,0.940,0.181,-9.076,4.336,-87.397
-0.021,0.946,0.175,-8.282,4.901,-83.214
-0.069,0.966,0.172,-8.359,7.504,-73.916
-0.086,0.970,0.160,-8.695,12.061,-60.870
-0.071,0.966,0.160,-10.153,11.412,-48.947
-0.046,0.969,0.161,-10.573,12.924,-40.153
-0.030,0.959,0.177,-11.344,12.214,-32.969
-0.005,0.952,0.176,-11.687,12.382,-28.382
0.023,0.954,0.177,-13.153,11.924,-26.733
0.012,0.963,0.191,-13.122,11.405,-25.000
0.000,0.964,0.208,-13.618,10.397,-21.924
-0.021,0.977,0.230,-11.962,7.099,-16.824
-0.017,0.961,0.243,-9.130,3.321,-11.183
0.002,0.968,0.247,-6.038,0.817,-6.473
0.045,0.962,0.222,-4.809,3.672,-4.985

-0.419,1.064,0.358,12.977,8.427,38.183
-0.739,1.101,0.426,20.191,-10.679,81.015
-0.957,1.096,0.465,29.534,-43.542,152.573
-1.223,0.997,0.486,44.969,-91.076,240.916
-1.158,0.754,0.412,71.053,-154.115,250.130
-0.487,0.395,0.081,111.015,-174.641,250.130
0.314,0.221,-0.305,126.931,-124.023,250.130
0.907,0.247,-0.565,97.687,-48.634,250.130
1.319,0.330,-0.535,50.954,21.679,250.130
1.483,0.395,-0.298,19.939,58.908,215.931
1.403,0.478,-0.129,1.962,45.046,145.099
1.217,0.541,-0.027,-2.504,33.656,102.817
1.059,0.582,0.036,-5.282,34.565,78.779
0.980,0.600,0.139,-9.420,37.748,65.939
1.010,0.560,0.244,-5.511,36.710,58.687
1.200,0.517,0.287,2.244,30.878,45.748
1.398,0.504,0.266,11.664,27.244,22.328
1.480,0.477,0.219,18.137,19.130,-8.748
1.414,0.460,0.135,19.214,12.687,-44.802
1.309,0.467,0.062,15.153,7.023,-68.824
1.221,0.470,0.009,5.550,-5.389,-91.137
1.151,0.463,-0.029,-7.168,-16.382,-109.313
1.063,0.480,-0.063,-21.511,-25.244,-129.366
0.919,0.512,-0.062,-30.870,-25.389,-141.496
0.780,0.562,-0.053,-39.603,-22.107,-148.817
0.660,0.608,-0.003,-45.794,-19.374,-150.794
0.585,0.663,0.036,-47.840,-16.954,-148.817
0.563,0.707,0.071,-47.023,-15.847,-146.046
0.546,0.717,0.089,-46.008,-14.664,-146.977
0.485,0.743,0.087,-45.237,-11.145,-151.748
0.388,0.772,0.110,-44.198,-1.733,-155.130
0.253,0.826,0.151,-43.176,7.687,-153.244
0.112,0.881,0.197,-40.481,14.046,-142.908
0.041,0.919,0.240,-32.466,16.389,-124.344
0.052,0.940,0.248,-20.771,21.473,-106.252
0.106,0.936,0.228,-12.756,29.656,-91.924
0.183,0.921,0.206,-7.679,36.206,-91.870
0.200,0.906,0.187,-7.786,37.191,-96.366
0.127,0.921,0.180,-9.809,31.626,-97.687
0.049,0.936,0.171,-10.198,26.634,-91.626
0.017,0.952,0.153,-10.046,26.901,-85.954
-0.020,0.953,0.138,-12.145,28.229,-78.061
-0.057,0.950,0.156,-11.031,27.817,-68.168
-0.054,0.956,0.169,-9.290,27.252,-56.435
-0.013,0.962,0.162,-10.023,28.183,-47.290
-0.010,0.969,0.196,-11.481,28.099,-42.710
-0.034,0.974,0.225,-9.473,25.740,-35.779
-0.006,0.973,0.221,-7.084,22.427,-30.069
0.013,0.965,0.208,-7.305,17.779,-25.405
0.028,0.972,0.202,-8.702,14.985,-22.290

-0.395,1.095,0.382,-11.481,-27.947,18.069
-0.858,1.164,0.543,-8.878,-49.519,47.313
-1.392,1.151,0.681,15.137,-83.870,122.191
-1.652,1.073,0.695,61.244,-93.855,234.847
-1.507,0.770,0.592,119.023,-93.527,250.130
-0.755,0.357,0.225,155.069,-87.656,250.130
0.061,0.052,-0.065,174.824,-50.985,250.130
0.888,0.042,-0.343,166.069,-4.695,250.130
1.311,0.136,-0.542,127.389,33.397,250.130
1.555,0.297,-0.542,79.405,63.725,250.130
1.656,0.397,-0.470,38.260,73.534,189.229
1.619,0.462,-0.338,-4.802,62.198,107.084
1.304,0.529,-0.085,-32.214,47.695,42.687
0.963,0.609,0.127,-35.115,42.237,18.702
0.889,0.625,0.248,-27.198,38.611,22.237
1.058,0.583,0.294,-13.687,32.137,22.779
1.209,0.531,0.253,-5.969,17.824,7.634
1.249,0.531,0.173,-6.214,3.076,-14.435
1.217,0.542,0.107,-13.160,-4.870,-32.260
1.237,0.514,0.084,-20.939,-11.260,-51.733
1.235,0.500,0.092,-25.641,-17.962,-72.511
1.183,0.503,0.061,-28.313,-24.160,-92.427
1.135,0.495,0.020,-33.145,-25.534,-119.389
1.028,0.524,0.015,-37.565,-22.145,-141.756
0.878,0.569,0.024,-41.534,-20.260,-155.611
0.739,0.605,0.026,-44.679,-18.328,-162.557
0.618,0.638,0.050,-46.504,-17.611,-165.985
0.516,0.686,0.064,-47.321,-15.008,-166.573
0.413,0.740,0.083,-49.916,-12.573,-163.565
0.327,0.782,0.137,-51.916,-10.351,-156.221
0.272,0.813,0.176,-50.084,-6.580,-149.740
0.235,0.837,0.193,-46.992,-2.107,-144.313
0.193,0.874,0.224,-41.405,3.947,-136.992
0.149,0.893,0.256,-33.336,12.504,-128.824
0.138,0.900,0.243,-26.725,17.824,-122.695
0.105,0.904,0.232,-21.412,20.359,-119.573
0.032,0.932,0.218,-17.779,20.359,-112.809
0.004,0.941,0.208,-16.015,21.855,-104.015
-0.043,0.943,0.198,-15.252,20.237,-92.863
-0.076,0.954,0.199,-13.542,19.748,-83.176
-0.063,0.948,0.184,-12.099,21.534,-71.206
-0.038,0.951,0.187,-11.389,24.718,-63.260
-0.029,0.954,0.186,-10.275,25.832,-56.122
-0.008,0.943,0.178,-9.382,30.160,-52.298
-0.017,0.950,0.191,-13.107,32.183,-49.389
-0.052,0.952,0.208,-16.008,29.389,-44.809
-0.082,0.957,0.226,-15.168,26.000,-38.084
-0.081,0.978,0.238,-11.931,22.847,-28.771
-0.062,0.969,0.242,-8.931,21.893,-20.947
-0.031,0.961,0.250,-7.244,18.359,-16.557

-0.400,1.046,0.370,15.008,-10.191,49.924
-0.551,1.061,0.391,22.794,-17.756,80.389
-0.879,1.101,0.422,23.038,-39.771,118.939
-1.388,1.061,0.531,33.321,-84.939,198.191
-1.662,0.778,0.572,68.000,-142.771,250.130
-0.902,0.417,0.209,141.618,-145.397,250.130
0.159,0.037,-0.223,162.168,-114.290,250.130
0.819,0.044,-0.500,139.893,-59.260,250.130
1.353,0.167,-0.655,96.481,35.557,250.130
1.704,0.332,-0.546,44.511,101.237,250.130
1.737,0.407,-0.363,-11.977,115.267,162.664
1.551,0.453,-0.022,-49.779,76.023,77.626
1.166,0.523,0.285,-41.618,48.122,27.137
0.870,0.601,0.365,-16.298,38.565,23.031
0.914,0.584,0.331,-4.351,34.137,32.420
1.147,0.542,0.303,-0.298,31.038,30.565
1.277,0.511,0.322,2.817,23.344,11.794
1.382,0.453,0.298,6.389,14.130,-17.496
1.305,0.480,0.214,10.122,6.611,-45.046
1.230,0.500,0.138,10.321,-0.496,-63.702
1.166,0.493,0.069,4.298,-9.191,-79.481
1.130,0.476,0.008,-7.908,-16.366,-99.947
1.027,0.504,-0.038,-20.214,-17.145,-119.733
0.896,0.527,-0.025,-30.870,-13.168,-132.122
0.780,0.592,0.007,-38.931,-12.458,-140.595
0.686,0.634,0.049,-40.641,-10.229,-142.351
0.664,0.669,0.085,-41.260,-8.427,-144.985
0.611,0.693,0.088,-42.779,-7.160,-150.550
0.524,0.715,0.118,-44.221,-4.099,-156.565
0.445,0.746,0.172,-43.550,0.031,-161.153
0.354,0.788,0.199,-38.641,4.000,-162.664
0.233,0.830,0.217,-32.534,12.321,-157.420
0.150,0.866,0.231,-27.008,16.382,-144.153
0.120,0.897,0.229,-21.092,18.366,-129.321
0.109,0.895,0.226,-20.053,15.748,-117.214
0.072,0.905,0.231,-20.450,13.885,-110.443
0.007,0.924,0.240,-17.542,13.802,-103.321
-0.036,0.946,0.229,-12.809,17.137,-90.794
-0.056,0.962,0.217,-9.565,20.947,-75.336
-0.025,0.966,0.216,-8.206,24.641,-61.901
0.032,0.943,0.209,-6.863,27.809,-55.221
0.043,0.937,0.206,-7.214,28.160,-54.198
-0.000,0.945,0.224,-9.023,23.420,-51.099
-0.029,0.959,0.233,-8.634,20.710,-45.008
-0.042,0.958,0.227,-7.634,18.008,-37.313
-0.053,0.964,0.223,-6.763,14.137,-29.901
-0.049,0.964,0.229,-6.153,12.374,-21.634
-0.010,0.958,0.224,-4.718,11.443,-15.611
0.010,0.956,0.226,-4.702,10.969,-12.664
0.023,0.954,0.236,-4.313,12.069,-11.260

-0.443,1.060,0.378,11.534,15.183,29.473
-0.941,1.114,0.442,18.221,3.916,73.870
-1.557,1.092,0.489,25.977,-19.740,158.679
-1.906,0.890,0.502,67.771,-27.962,250.130
-0.658,0.359,0.213,88.748,-38.725,250.130
0.550,0.116,0.086,94.122,-14.725,250.130
1.221,0.163,-0.080,95.611,18.130,250.130
1.619,0.297,-0.224,70.481,49.557,250.130
1.723,0.412,-0.162,35.832,64.916,194.992
1.346,0.510,0.025,1.336,39.382,90.565
0.895,0.621,0.198,10.931,25.855,62.870
0.712,0.667,0.153,25.405,28.824,70.176
0.794,0.613,0.135,20.817,33.359,75.298
0.992,0.577,0.156,11.267,28.916,71.206
1.213,0.528,0.182,1.725,21.145,49.977
1.343,0.513,0.209,-3.015,15.214,19.252
1.347,0.494,0.202,-3.092,7.160,-15.718
1.204,0.493,0.142,-5.427,-1.504,-45.992
1.042,0.523,0.096,-16.389,-10.985,-66.137
0.937,0.548,0.081,-28.458,-19.023,-76.748
0.835,0.582,0.101,-35.313,-23.244,-82.115
0.797,0.605,0.125,-36.206,-24.282,-82.153
0.874,0.623,0.110,-35.466,-22.176,-86.550
0.912,0.611,0.117,-36.389,-22.305,-97.847
0.887,0.611,0.125,-37.282,-24.191,-115.397
0.791,0.631,0.125,-39.679,-23.206,-132.305
0.678,0.661,0.140,-44.725,-21.504,-145.916
0.539,0.710,0.172,-49.412,-18.275,-153.290
0.411,0.747,0.215,-53.786,-17.107,-155.382
0.243,0.818,0.279,-52.122,-17.084,-149.603
0.134,0.888,0.321,-42.038,-14.328,-130.664
0.125,0.911,0.328,-30.992,-8.198,-106.046
0.201,0.910,0.312,-21.038,-1.618,-90.084
0.274,0.887,0.290,-13.573,4.969,-83.656
0.283,0.880,0.265,-9.160,9.206,-85.382
0.241,0.884,0.234,-8.527,11.824,-88.084
0.174,0.890,0.225,-11.008,12.595,-85.588
0.123,0.909,0.216,-13.160,11.084,-80.603
0.079,0.921,0.219,-13.756,8.153,-72.763
0.060,0.932,0.229,-10.725,7.137,-63.031
0.070,0.937,0.218,-6.519,8.885,-51.023
0.106,0.944,0.194,-4.420,13.504,-41.641
0.156,0.927,0.201,-5.214,17.718,-37.763
0.164,0.920,0.202,-5.794,20.198,-37.466
0.161,0.926,0.218,-7.092,21.481,-37.679
0.133,0.924,0.239,-8.305,19.412,-36.122
0.126,0.938,0.256,-8.710,18.069,-32.191
0.130,0.938,0.273,-9.160,15.183,-29.763
0.112,0.941,0.268,-7.336,11.847,-26.771
0.141,0.931,0.269,-5.000,11.893,-23.221

-0.394,1.049,0.392,13.817,4.427,35.099
-0.670,1.092,0.466,17.160,6.969,70.061
-1.104,1.089,0.529,26.237,4.061,126.588
-1.458,0.995,0.607,51.588,3.221,223.137
-1.168,0.726,0.524,103.695,26.351,250.130
-0.043,0.318,0.344,129.214,58.733,250.130
0.572,0.278,0.259,136.870,67.863,250.130
1.085,0.321,0.064,140.611,72.840,250.130
1.452,0.391,-0.126,122.847,67.687,250.130
1.633,0.415,-0.193,91.542,59.809,198.542
1.595,0.467,-0.294,39.588,25.282,102.099
1.185,0.520,-0.180,3.107,16.733,31.244
0.824,0.632,-0.133,-24.634,23.733,17.695
0.726,0.653,0.060,-41.794,29.023,27.809
0.871,0.613,0.231,-43.557,20.328,36.153
1.088,0.567,0.301,-32.282,10.977,25.908
1.177,0.544,0.254,-24.420,2.962,4.130
1.170,0.538,0.201,-21.351,-2.427,-19.710
1.125,0.541,0.138,-26.221,-11.275,-39.221
1.105,0.548,0.097,-36.664,-19.511,-57.260
1.057,0.541,0.097,-47.588,-25.412,-76.641
0.970,0.558,0.140,-55.046,-28.748,-97.168
0.856,0.597,0.177,-55.679,-29.130,-111.290
0.812,0.625,0.217,-51.824,-26.771,-118.855
0.789,0.636,0.243,-43.672,-23.214,-129.809
0.725,0.676,0.217,-38.664,-24.290,-140.534
0.626,0.706,0.180,-41.595,-24.023,-148.237
0.526,0.739,0.191,-48.504,-23.489,-152.618
0.424,0.760,0.238,-52.634,-22.878,-153.435
0.341,0.793,0.258,-52.947,-21.405,-152.031
0.249,0.827,0.305,-49.099,-16.924,-145.427
0.184,0.845,0.332,-42.756,-14.450,-137.534
0.133,0.870,0.343,-34.466,-9.282,-127.061
0.118,0.871,0.345,-27.718,-6.718,-118.962
0.110,0.883,0.327,-22.947,-4.191,-114.695
0.063,0.908,0.310,-19.908,-4.336,-109.298
0.027,0.915,0.297,-15.137,-0.420,-98.977
0.005,0.919,0.271,-13.198,1.130,-88.618
0.008,0.913,0.252,-13.275,2.168,-79.832
-0.027,0.922,0.252,-15.573,0.328,-73.076
-0.044,0.923,0.247,-17.771,-2.718,-65.817
-0.079,0.940,0.260,-18.771,-6.008,-54.771
-0.059,0.947,0.283,-17.038,-1.985,-42.382
-0.028,0.943,0.296,-13.924,3.977,-33.634
-0.007,0.934,0.300,-11.466,8.084,-27.992
0.004,0.928,0.307,-9.214,9.458,-24.015
0.010,0.932,0.313,-8.359,9.061,-20.466
0.033,0.926,0.311,-9.176,8.603,-18.191
0.036,0.930,0.308,-10.137,7.656,-16.649
0.030,0.927,0.324,-10.748,5.763,-14.145

-0.361,1.028,0.417,20.672,16.130,41.328
-0.665,1.068,0.465,29.626,16.870,76.641
-0.928,1.041,0.453,38.290,21.573,125.756
-1.131,1.000,0.465,49.962,22.702,201.420
-1.175,0.849,0.467,65.275,32.160,250.130
-0.679,0.595,0.441,78.443,37.580,250.130
-0.061,0.338,0.421,93.534,56.420,250.130
0.469,0.289,0.334,106.771,67.282,250.130
1.119,0.247,0.240,117.824,71.870,250.130
1.578,0.314,0.065,112.817,54.763,250.130
1.743,0.311,-0.052,85.802,6.809,216.985
1.737,0.364,-0.207,54.580,-12.802,116.366
1.399,0.451,-0.257,8.832,-0.786,25.405
0.873,0.615,-0.104,-28.679,14.122,-2.740
0.661,0.677,0.136,-47.580,13.718,11.664
0.793,0.636,0.315,-39.069,4.939,26.748
1.039,0.572,0.337,-20.916,-2.969,19.626
1.168,0.551,0.270,-11.275,-6.076,-3.649
1.157,0.501,0.249,-8.924,-10.107,-31.573
1.097,0.557,0.118,-17.947,-16.748,-51.137
1.042,0.556,0.068,-27.519,-20.046,-70.282
0.957,0.555,0.087,-39.618,-24.542,-86.092
0.859,0.582,0.120,-50.809,-24.786,-99.122
0.740,0.608,0.180,-55.870,-21.214,-110.214
0.665,0.652,0.224,-52.931,-20.290,-116.649
0.601,0.702,0.235,-47.870,-20.840,-115.489
0.554,0.742,0.237,-44.000,-17.992,-111.504
0.530,0.757,0.253,-43.153,-18.618,-108.252
0.473,0.774,0.285,-43.771,-19.527,-108.084
0.399,0.795,0.310,-39.420,-16.595,-107.076
0.314,0.837,0.311,-31.519,-10.122,-100.282
0.272,0.868,0.313,-23.733,-2.275,-87.924
0.302,0.873,0.315,-19.504,2.924,-77.336
0.337,0.873,0.329,-16.527,3.542,-73.947
0.352,0.865,0.323,-12.420,-1.069,-73.947
0.327,0.866,0.312,-6.840,-5.977,-73.840
0.315,0.861,0.276,-3.588,-6.427,-75.374
0.267,0.873,0.242,-2.878,-5.191,-76.244
0.215,0.885,0.230,-3.809,-5.511,-72.405
0.200,0.891,0.205,-6.664,-2.107,-64.863
0.205,0.902,0.173,-11.092,1.977,-56.992
0.233,0.892,0.216,-13.916,0.542,-53.557
0.253,0.884,0.201,-18.374,-4.099,-51.664
0.297,0.869,0.205,-25.000,-13.962,-52.985
0.284,0.885,0.210,-26.351,-9.191,-58.076
0.252,0.876,0.233,-28.695,-10.359,-58.672
0.249,0.877,0.252,-30.328,-12.053,-59.107
0.240,0.886,0.259,-29.389,-5.145,-61.038
0.212,0.903,0.274,-29.031,2.359,-61.336
0.167,0.911,0.339,-26.634,3.214,-59.939

-0.328,1.050,0.472,20.191,9.672,20.298
-0.673,1.098,0.532,34.351,19.702,53.779
-1.018,1.110,0.565,50.374,16.695,107.435
-1.268,1.063,0.564,75.908,20.344,193.481
-1.245,0.868,0.511,106.832,50.008,250.130
-0.642,0.594,0.481,131.893,83.542,250.130
-0.045,0.303,0.433,140.718,104.534,250.130
0.611,0.252,0.294,130.008,95.489,250.130
1.177,0.274,0.232,116.573,81.656,250.130
1.481,0.340,0.115,103.237,58.275,243.435
1.356,0.484,-0.010,72.069,5.168,164.847
1.161,0.535,-0.106,48.786,-10.191,111.740
0.972,0.610,-0.162,21.969,3.641,83.168
0.859,0.625,-0.068,-2.366,13.412,69.397
0.885,0.615,0.056,-18.420,11.924,60.427
0.986,0.585,0.137,-25.649,2.336,46.252
1.074,0.628,0.104,-30.847,-3.038,33.359
1.308,0.484,0.187,-28.550,-3.084,-5.122
1.199,0.525,0.122,-33.588,-16.168,-40.076
1.095,0.543,0.126,-37.107,-23.817,-63.382
1.008,0.575,0.074,-50.901,-32.008,-78.336
0.979,0.573,0.082,-67.252,-43.221,-98.267
0.869,0.579,0.136,-78.427,-45.519,-116.534
0.727,0.630,0.214,-80.893,-37.321,-126.992
0.613,0.664,0.272,-77.260,-30.931,-130.099
0.542,0.703,0.306,-71.160,-22.702,-129.511
0.459,0.737,0.312,-66.527,-17.115,-125.832
0.418,0.783,0.338,-61.557,-14.756,-118.061
0.388,0.816,0.345,-51.939,-11.771,-108.802
0.374,0.845,0.372,-36.679,-8.252,-99.382
0.331,0.854,0.343,-23.412,-5.092,-90.489
0.321,0.868,0.324,-18.145,-6.702,-81.458
0.319,0.850,0.328,-12.405,-9.695,-78.260
0.328,0.849,0.270,-10.992,-5.412,-78.099
0.310,0.856,0.248,-13.122,-2.046,-79.733
0.283,0.863,0.248,-17.015,1.542,-80.580
0.238,0.866,0.254,-19.649,3.725,-80.511
0.208,0.884,0.269,-20.824,4.130,-78.809
0.148,0.894,0.281,-20.641,3.664,-74.115
0.104,0.894,0.273,-20.084,1.527,-64.290
0.125,0.927,0.287,-20.214,3.901,-56.695
0.101,0.914,0.290,-18.611,5.573,-48.160
0.119,0.918,0.304,-16.954,7.198,-39.977
0.124,0.914,0.320,-14.351,2.947,-32.481
0.140,0.903,0.309,-11.870,-0.649,-26.855
0.167,0.906,0.281,-10.557,2.389,-22.107
0.198,0.897,0.293,-11.756,7.725,-20.481
0.207,0.885,0.303,-12.122,12.092,-22.137
0.187,0.896,0.328,-12.298,14.359,-23.580
0.172,0.900,0.342,-11.725,14.695,-21.771

-0.317,1.036,0.489,25.786,19.908,24.183
-0.722,1.152,0.565,41.237,25.519,64.435
-1.166,1.106,0.601,62.160,15.908,134.168
-1.353,0.924,0.592,95.534,29.053,250.130
-0.642,0.646,0.500,127.389,57.901,250.130
0.057,0.341,0.436,152.740,88.855,250.130
0.676,0.261,0.268,166.885,122.595,250.130
1.150,0.204,0.224,157.580,126.992,250.130
1.457,0.247,0.191,136.969,95.527,250.130
1.713,0.338,0.147,112.290,53.130,217.985
1.647,0.385,0.024,78.252,2.359,103.901
1.393,0.458,-0.130,34.557,-9.389,13.153
1.054,0.559,-0.112,-4.748,-3.695,-19.649
0.916,0.580,-0.003,-29.458,3.351,-24.473
0.770,0.728,-0.072,-45.038,-8.321,-24.168
1.057,0.472,0.133,-60.763,-20.542,-40.099
1.071,0.472,0.123,-76.931,-39.908,-65.863
1.008,0.521,0.096,-95.901,-46.466,-86.962
0.931,0.549,0.128,-106.160,-43.122,-97.924
0.896,0.567,0.186,-112.870,-41.649,-112.809
0.815,0.586,0.255,-111.107,-42.534,-127.092
0.739,0.618,0.320,-102.466,-37.985,-136.427
0.644,0.645,0.352,-90.443,-34.977,-140.183
0.593,0.678,0.339,-80.847,-35.198,-144.466
0.537,0.718,0.371,-68.198,-31.748,-148.443
0.466,0.749,0.384,-55.840,-25.366,-146.779
0.388,0.790,0.358,-47.870,-17.122,-141.015
0.310,0.812,0.368,-40.305,-7.061,-132.634
0.267,0.833,0.368,-35.282,-3.420,-124.947
0.228,0.843,0.372,-31.221,-0.389,-117.092
0.207,0.856,0.358,-29.847,1.809,-111.084
0.194,0.856,0.357,-30.954,3.298,-106.863
0.156,0.862,0.348,-29.931,1.931,-104.649
0.110,0.890,0.371,-25.595,4.412,-101.267
0.059,0.889,0.405,-17.718,7.137,-92.053
0.052,0.874,0.428,-6.176,3.824,-80.916
0.040,0.910,0.373,2.038,-1.015,-73.397
0.030,0.926,0.294,2.092,-0.351,-63.489
0.048,0.907,0.249,-3.115,1.328,-53.229
0.081,0.904,0.224,-14.046,7.099,-45.397
0.090,0.898,0.232,-23.847,15.496,-38.824
0.114,0.898,0.281,-30.344,19.763,-37.427
0.092,0.893,0.349,-29.168,21.153,-34.847
0.078,0.897,0.381,-25.313,13.336,-30.252
0.066,0.907,0.400,-19.771,7.260,-22.305
0.065,0.904,0.398,-14.847,2.916,-12.565
0.119,0.890,0.384,-12.687,-0.061,-7.122
0.155,0.886,0.378,-10.779,2.718,-7.420
0.157,0.883,0.400,-9.405,4.977,-8.992
0.141,0.885,0.411,-6.718,4.466,-9.557

-0.309,1.061,0.469,58.000,49.389,38.855
-0.579,1.164,0.530,81.160,58.504,80.160
-0.756,1.065,0.623,103.840,70.382,133.382
-0.846,0.873,0.678,131.832,59.939,204.855
-0.773,0.659,0.585,160.206,61.221,250.130
-0.145,0.583,0.473,188.794,82.878,250.130
0.340,0.425,0.411,203.260,110.366,250.130
0.735,0.394,0.221,191.550,97.145,250.130
1.081,0.480,0.058,163.740,78.405,250.130
1.186,0.501,-0.042,128.069,47.847,220.260
1.285,0.545,-0.102,86.122,25.061,144.611
1.288,0.543,-0.229,30.565,16.450,72.588
1.063,0.602,-0.076,0.115,24.947,28.595
0.904,0.663,0.024,-21.794,10.359,13.527
0.892,0.661,0.018,-41.771,-6.878,6.855
0.852,0.663,-0.020,-63.939,-26.008,4.145
1.039,0.524,0.122,-69.672,-29.214,-20.794
1.026,0.599,0.051,-80.153,-40.916,-43.397
1.002,0.589,0.102,-82.305,-39.405,-64.656
0.924,0.604,0.076,-86.885,-33.947,-76.786
0.879,0.616,0.115,-92.542,-26.023,-89.733
0.843,0.609,0.151,-96.260,-25.840,-106.153
0.749,0.628,0.190,-97.771,-25.290,-123.298
0.642,0.675,0.222,-98.664,-23.817,-132.626
0.566,0.698,0.276,-95.191,-21.290,-135.763
0.497,0.737,0.324,-89.130,-25.664,-136.221
0.444,0.777,0.350,-78.099,-25.924,-135.160
0.389,0.805,0.381,-62.733,-22.496,-128.229
0.323,0.820,0.402,-49.405,-19.603,-122.084
0.284,0.842,0.390,-38.359,-15.122,-114.427
0.266,0.862,0.372,-31.000,-10.069,-109.947
0.234,0.877,0.356,-28.092,-4.641,-107.008
0.184,0.885,0.334,-26.748,-5.885,-101.832
0.167,0.892,0.338,-23.015,-4.992,-96.580
0.142,0.887,0.318,-18.977,-4.008,-90.557
0.130,0.882,0.307,-15.298,-3.962,-83.145
0.104,0.894,0.282,-16.008,-3.344,-77.603
0.090,0.890,0.271,-20.176,-3.000,-72.496
0.061,0.901,0.296,-23.252,-3.786,-68.221
0.046,0.896,0.295,-24.099,0.008,-62.519
0.041,0.916,0.287,-23.137,9.748,-54.626
0.018,0.915,0.317,-23.786,16.588,-46.290
0.029,0.920,0.353,-22.840,18.427,-37.931
0.042,0.915,0.367,-19.557,16.763,-30.634
0.029,0.915,0.394,-14.542,10.328,-22.176
0.054,0.921,0.401,-8.580,10.626,-14.679
0.062,0.905,0.388,-5.260,8.595,-9.443
0.085,0.903,0.365,-3.137,7.626,-6.115
0.096,0.899,0.360,-2.802,7.611,-4.221
0.125,0.894,0.362,-2.702,8.763,-4.412

-0.347,1.027,0.480,44.405,12.290,55.618
-0.577,1.105,0.532,68.511,7.649,93.359
-0.813,1.119,0.512,97.450,11.863,148.244
-1.225,0.981,0.540,120.733,-0.817,226.885
-1.098,0.735,0.486,151.985,21.733,250.130
-0.230,0.468,0.348,171.939,66.542,250.130
0.493,0.235,0.229,158.573,124.008,250.130
0.997,0.196,0.300,135.137,126.710,250.130
1.365,0.189,0.362,118.611,97.809,250.130
1.684,0.305,0.333,117.008,52.695,250.130
1.844,0.348,0.057,90.786,3.656,147.550
1.533,0.384,-0.040,58.847,-6.229,40.992
1.027,0.551,-0.074,33.565,1.267,-4.076
0.594,0.814,-0.180,0.588,-11.237,2.878
0.939,0.544,-0.004,-21.649,-16.947,-5.198
0.946,0.554,-0.003,-36.321,-25.206,-20.802
0.982,0.542,0.029,-44.550,-21.695,-38.580
0.944,0.569,0.013,-58.260,-22.885,-46.168
0.990,0.562,0.052,-69.718,-25.740,-58.618
1.032,0.537,0.071,-81.878,-37.969,-79.076
0.985,0.542,0.076,-93.237,-42.198,-101.832
0.875,0.560,0.094,-106.084,-37.145,-124.817
0.786,0.586,0.156,-110.947,-28.679,-141.389
0.650,0.612,0.208,-109.634,-22.947,-154.305
0.545,0.684,0.266,-100.527,-15.221,-157.863
0.440,0.731,0.305,-86.595,-4.756,-153.595
0.364,0.781,0.341,-70.695,0.305,-141.153
0.306,0.824,0.366,-59.496,-0.969,-126.015
0.283,0.858,0.386,-50.481,-6.504,-108.198
0.300,0.858,0.389,-42.405,-5.672,-95.427
0.322,0.849,0.373,-34.389,-0.061,-89.076
0.324,0.848,0.370,-26.733,6.702,-88.031
0.315,0.842,0.373,-20.824,11.481,-92.863
0.281,0.850,0.350,-18.008,14.244,-97.176
0.220,0.870,0.321,-18.481,15.359,-98.267
0.195,0.878,0.306,-18.962,16.198,-96.282
0.156,0.891,0.290,-18.939,17.817,-93.992
0.106,0.904,0.295,-19.634,20.252,-84.076
0.078,0.906,0.311,-17.595,14.817,-73.779
0.069,0.920,0.295,-15.061,14.275,-60.885
0.073,0.919,0.296,-14.519,14.771,-47.130
0.087,0.903,0.302,-15.198,11.687,-35.313
0.122,0.906,0.320,-15.458,9.840,-28.008
0.130,0.904,0.336,-15.786,9.695,-25.008
0.134,0.894,0.355,-15.168,10.359,-23.069
0.130,0.900,0.369,-12.305,11.069,-20.954
0.114,0.897,0.383,-9.771,11.916,-17.718
0.121,0.893,0.385,-7.344,12.382,-13.076
0.141,0.892,0.380,-6.099,9.992,-11.191
0.147,0.888,0.373,-5.557,6.397,-10.611

-0.318,1.058,0.458,40.718,22.496,53.534
-0.524,1.047,0.470,53.405,37.527,86.771
-0.778,1.097,0.537,69.427,36.908,128.145
-1.189,1.047,0.583,95.305,37.679,209.702
-1.114,0.794,0.578,132.496,52.107,250.130
-0.424,0.578,0.452,155.351,92.282,250.130
0.057,0.369,0.467,153.237,102.336,250.130
0.444,0.183,0.542,159.298,73.794,250.130
1.024,0.248,0.385,171.618,52.954,250.130
1.406,0.270,0.134,161.244,41.534,250.130
1.777,0.263,-0.302,106.046,15.382,241.969
1.953,0.278,-0.171,55.191,29.206,113.504
1.472,0.316,-0.047,25.000,31.580,26.206
1.104,0.434,0.038,8.405,18.649,-5.061
0.825,0.559,0.039,-16.344,-5.046,-3.359
1.182,0.376,0.115,-30.176,-17.954,-23.664
1.122,0.430,-0.012,-50.328,-24.107,-46.702
1.085,0.430,0.054,-71.214,-24.084,-67.687
0.996,0.460,0.103,-91.038,-27.237,-74.466
1.009,0.464,0.177,-101.664,-30.863,-87.962
0.956,0.478,0.222,-107.794,-37.130,-106.244
0.906,0.505,0.294,-107.786,-35.198,-121.794
0.832,0.538,0.310,-103.389,-33.626,-134.771
0.772,0.582,0.314,-98.817,-26.496,-146.885
0.684,0.617,0.315,-95.809,-19.397,-156.374
0.630,0.660,0.331,-90.504,-12.229,-163.626
0.528,0.705,0.343,-84.794,-7.664,-170.038
0.402,0.760,0.397,-75.771,-9.038,-172.519
0.267,0.779,0.461,-60.336,-7.374,-163.679
0.228,0.803,0.451,-47.206,-8.229,-152.458
0.201,0.810,0.426,-35.687,-6.832,-140.802
0.203,0.835,0.408,-26.420,-1.756,-133.313
0.182,0.848,0.387,-24.786,3.954,-131.298
0.146,0.860,0.389,-24.992,7.901,-131.565
0.127,0.866,0.386,-23.527,7.855,-131.794
0.061,0.884,0.395,-21.641,7.802,-128.588
-0.007,0.899,0.374,-17.542,4.992,-121.252
-0.041,0.904,0.355,-15.069,4.702,-110.229
-0.076,0.907,0.344,-13.977,2.641,-96.214
-0.108,0.922,0.324,-15.992,4.046,-79.458
-0.127,0.929,0.321,-16.771,5.084,-59.160
-0.115,0.929,0.345,-16.855,9.160,-39.069
-0.084,0.926,0.369,-16.305,9.565,-21.221
-0.028,0.908,0.394,-13.137,13.237,-7.817
0.016,0.889,0.403,-8.656,13.481,-0.015
0.048,0.889,0.400,-6.664,11.122,2.542
0.067,0.883,0.401,-5.511,7.313,4.763
0.104,0.877,0.403,-4.160,5.160,6.359
0.129,0.857,0.401,-3.695,4.176,5.023
0.139,0.864,0.388,-4.038,4.313,1.489

-0.319,1.007,0.490,41.176,21.359,42.527
-0.447,1.052,0.497,63.244,25.992,84.962
-0.499,1.083,0.440,87.603,38.649,138.061
-0.506,0.969,0.468,110.336,67.740,196.595
-0.475,0.808,0.558,148.618,90.527,250.130
-0.257,0.665,0.561,182.794,110.397,250.130
0.189,0.504,0.448,199.183,108.305,250.130
0.343,0.443,0.501,212.916,87.992,250.130
0.542,0.545,0.302,217.458,73.908,250.130
0.741,0.615,-0.271,126.626,23.511,226.183
0.920,0.634,-0.181,78.214,56.992,173.336
0.885,0.654,0.003,40.656,67.115,130.420
0.930,0.625,0.122,16.260,46.702,97.000
0.915,0.590,0.181,7.427,22.855,74.992
0.936,0.588,0.148,-3.672,4.405,61.489
1.092,0.567,0.118,-14.588,-3.565,30.924
1.041,0.585,0.118,-32.466,-7.489,1.863
0.906,0.594,0.147,-44.405,-10.924,-12.985
0.867,0.605,0.104,-64.626,-28.214,-19.748
0.951,0.551,0.118,-84.939,-43.130,-38.336
0.955,0.570,0.095,-99.916,-43.237,-59.489
0.932,0.580,0.134,-115.504,-39.962,-81.908
0.879,0.567,0.202,-120.832,-35.824,-103.008
0.815,0.613,0.228,-121.130,-30.702,-121.672
0.710,0.656,0.261,-119.305,-24.649,-133.771
0.619,0.690,0.316,-113.595,-20.939,-139.893
0.529,0.717,0.373,-100.992,-16.191,-140.221
0.448,0.736,0.376,-86.489,-11.649,-139.198
0.376,0.794,0.384,-75.473,-6.168,-136.061
0.307,0.814,0.405,-66.847,-5.557,-126.939
0.266,0.826,0.426,-55.748,-4.786,-117.069
0.250,0.850,0.417,-46.145,-3.702,-108.450
0.222,0.851,0.413,-38.931,-3.695,-102.115
0.207,0.858,0.408,-31.244,-3.550,-95.740
0.181,0.857,0.396,-24.840,-5.305,-91.550
0.164,0.864,0.394,-20.542,-2.855,-86.130
0.164,0.858,0.373,-15.511,2.427,-80.863
0.133,0.882,0.368,-13.847,2.672,-76.908
0.110,0.888,0.365,-14.710,-0.420,-70.267
0.085,0.889,0.363,-14.275,-1.611,-60.550
0.071,0.900,0.356,-13.336,-3.481,-49.237
0.075,0.894,0.352,-13.489,-2.466,-38.779
0.075,0.894,0.346,-13.061,1.069,-26.580
0.105,0.882,0.367,-12.595,5.878,-16.626
0.145,0.879,0.370,-11.695,9.779,-10.863
0.154,0.880,0.387,-10.443,11.298,-8.015
0.159,0.866,0.409,-10.580,6.092,-3.511
0.208,0.849,0.410,-7.863,1.267,-2.901
0.229,0.849,0.385,-6.756,1.015,-4.397
0.213,0.846,0.388,-6.099,2.321,-6.908

-0.283,0.994,0.536,61.763,15.130,79.099
-0.645,1.074,0.641,76.626,-4.389,122.641
-0.938,0.970,0.708,118.489,-27.122,202.740
-0.767,0.706,0.632,171.000,-14.412,250.130
-0.023,0.464,0.421,203.595,12.947,250.130
0.490,0.336,0.222,208.458,38.794,250.130
0.965,0.328,0.036,184.450,42.382,250.130
1.227,0.373,-0.091,146.206,28.130,250.130
1.385,0.397,-0.183,99.595,12.389,190.504
1.530,0.421,-0.259,42.908,4.740,103.542
1.312,0.433,-0.188,-6.206,7.366,28.122
1.067,0.478,-0.032,-40.305,8.000,-3.969
0.894,0.568,0.002,-65.153,6.672,-0.809
1.132,0.468,0.169,-71.198,0.534,-28.290
1.127,0.445,0.203,-76.817,-11.305,-52.260
1.039,0.514,0.182,-77.954,-13.519,-68.939
0.967,0.540,0.188,-79.450,-10.076,-75.687
0.946,0.520,0.222,-79.389,-11.542,-85.832
0.879,0.558,0.251,-75.870,-14.313,-93.504
0.818,0.598,0.264,-71.893,-10.626,-101.702
0.763,0.629,0.303,-61.634,-7.802,-108.863
0.700,0.669,0.281,-54.695,-9.489,-117.198
0.626,0.691,0.285,-50.115,-10.328,-121.145
0.533,0.730,0.295,-44.412,-10.458,-120.985
0.439,0.762,0.306,-41.038,-13.771,-116.931
0.387,0.794,0.301,-38.435,-13.687,-110.031
0.346,0.804,0.298,-34.282,-6.290,-100.290
0.354,0.814,0.295,-30.687,3.313,-94.626
0.366,0.824,0.275,-31.031,10.618,-92.336
0.347,0.847,0.274,-34.275,15.573,-93.985
0.285,0.855,0.312,-36.290,9.771,-91.748
0.254,0.859,0.345,-34.618,4.344,-87.985
0.230,0.857,0.350,-30.366,3.031,-83.420
0.206,0.859,0.341,-26.618,1.618,-77.733
0.199,0.865,0.317,-25.290,3.275,-73.122
0.183,0.864,0.292,-25.977,7.931,-67.458
0.197,0.866,0.302,-27.420,15.092,-62.336
0.197,0.878,0.327,-27.382,15.664,-58.748
0.166,0.904,0.343,-24.084,8.275,-50.771
0.154,0.902,0.384,-19.901,5.695,-40.672
0.150,0.886,0.384,-13.656,0.221,-30.084
0.161,0.875,0.376,-8.412,-2.992,-20.466
0.195,0.876,0.348,-7.221,-3.840,-15.527
0.219,0.869,0.347,-8.366,-1.893,-13.160
0.248,0.871,0.342,-8.664,2.382,-13.328
0.237,0.864,0.346,-9.710,6.359,-13.252
0.246,0.871,0.358,-9.817,7.420,-13.634
0.232,0.860,0.374,-10.046,7.107,-15.023
0.218,0.864,0.362,-10.389,6.374,-16.160
0.192,0.875,0.381,-12.160,6.794,-15.397

-0.250,1.068,0.516,68.336,51.290,66.435
-0.554,1.099,0.586,96.908,79.366,111.076
-0.777,1.007,0.609,126.015,94.099,173.931
-0.762,0.781,0.568,143.855,96.840,247.588
-0.281,0.665,0.499,154.916,79.702,250.130
0.293,0.481,0.377,154.473,82.145,250.130
0.821,0.354,0.302,148.626,76.176,250.130
1.080,0.295,0.262,138.374,52.870,250.130
1.399,0.419,0.121,122.008,25.198,250.130
1.498,0.426,-0.007,91.824,-0.229,166.969
1.560,0.418,-0.161,39.198,-13.496,62.366
1.174,0.476,-0.080,12.733,4.855,-2.275
0.960,0.478,0.147,-2.977,6.634,-28.344
0.877,0.589,0.027,-31.817,3.725,-18.725
0.934,0.613,0.100,-38.794,-10.405,-40.954
0.936,0.552,0.130,-45.931,-21.122,-55.573
0.870,0.594,0.074,-58.481,-23.321,-60.466
0.880,0.566,0.124,-72.954,-29.366,-71.748
0.862,0.586,0.145,-84.977,-33.763,-91.832
0.763,0.620,0.180,-94.344,-26.527,-104.740
0.680,0.665,0.254,-95.870,-18.603,-113.084
0.617,0.693,0.307,-93.634,-15.611,-118.313
0.548,0.723,0.326,-87.649,-20.542,-121.710
0.490,0.758,0.369,-80.679,-19.198,-121.809
0.439,0.759,0.374,-70.916,-16.427,-118.863
0.395,0.795,0.359,-60.168,-12.137,-116.145
0.353,0.813,0.369,-52.779,-10.656,-111.588
0.325,0.827,0.362,-45.664,-8.893,-106.336
0.306,0.840,0.342,-43.466,-8.832,-103.733
0.315,0.840,0.356,-39.023,-5.672,-103.595
0.295,0.844,0.335,-38.412,-1.290,-105.954
0.234,0.847,0.357,-36.885,3.672,-106.481
0.199,0.856,0.370,-35.397,9.053,-105.397
0.164,0.868,0.405,-30.832,6.183,-104.710
0.116,0.870,0.389,-23.374,1.618,-100.916
0.062,0.915,0.361,-22.634,2.145,-90.176
0.032,0.897,0.364,-18.718,2.359,-70.534
0.015,0.922,0.354,-16.679,3.740,-49.573
0.029,0.905,0.356,-16.458,3.328,-31.672
0.072,0.890,0.367,-15.389,3.160,-18.351
0.113,0.881,0.369,-14.328,2.924,-11.023
0.156,0.874,0.368,-13.550,4.046,-6.947
0.192,0.862,0.392,-11.130,6.321,-5.885
0.206,0.849,0.389,-8.939,8.382,-8.084
0.204,0.855,0.385,-8.137,8.435,-9.626
0.183,0.867,0.375,-9.626,6.885,-11.168
0.164,0.869,0.394,-11.305,6.145,-9.580
0.154,0.858,0.416,-10.618,2.763,-7.458
0.160,0.860,0.426,-8.382,1.985,-5.771
0.170,0.864,0.422,-5.740,3.786,-4.656

-0.314,1.001,0.522,39.130,16.718,51.038
-0.444,1.001,0.535,56.344,24.763,94.374
-0.478,0.984,0.492,84.008,48.992,149.450
-0.402,0.917,0.454,107.832,70.382,203.160
-0.254,0.843,0.461,134.336,86.664,248.908
-0.097,0.758,0.481,156.229,101.725,250.130
0.037,0.593,0.437,171.832,122.534,250.130
0.291,0.445,0.474,174.962,108.939,250.130
0.866,0.366,0.327,167.908,45.359,250.130
1.135,0.448,0.146,144.840,20.031,249.794
1.362,0.457,-0.083,98.786,9.282,172.649
1.474,0.477,-0.103,39.191,5.687,85.992
1.228,0.497,0.042,10.328,19.595,26.924
1.032,0.504,0.259,-7.710,9.122,-1.947
0.969,0.575,0.205,-27.328,-8.916,-7.504
0.983,0.588,0.150,-35.740,-27.809,-31.901
0.980,0.531,0.129,-47.031,-30.748,-49.168
0.908,0.568,0.063,-70.046,-35.977,-60.947
0.896,0.564,0.099,-92.160,-49.763,-70.771
0.919,0.552,0.152,-104.466,-58.985,-90.160
0.857,0.560,0.166,-109.336,-54.328,-105.107
0.805,0.589,0.226,-105.733,-43.374,-119.573
0.745,0.603,0.237,-99.573,-29.481,-132.664
0.684,0.636,0.244,-95.992,-16.489,-146.267
0.621,0.676,0.241,-96.107,-10.015,-158.328
0.531,0.722,0.302,-97.015,-5.427,-166.664
0.429,0.743,0.342,-95.748,-5.115,-170.595
0.324,0.762,0.431,-87.359,-3.305,-168.015
0.234,0.787,0.461,-72.664,-2.550,-161.802
0.163,0.834,0.511,-54.977,-2.786,-152.534
0.101,0.843,0.543,-37.878,-8.145,-139.908
0.094,0.873,0.504,-23.794,-13.634,-127.962
0.075,0.902,0.445,-13.794,-17.000,-118.443
0.036,0.926,0.402,-13.374,-5.977,-104.702
0.011,0.919,0.373,-13.504,0.718,-86.237
0.026,0.901,0.372,-12.603,1.191,-71.695
0.022,0.894,0.389,-12.412,2.214,-63.466
0.010,0.902,0.372,-8.969,1.908,-52.435
0.004,0.902,0.351,-7.519,-1.588,-42.260
0.014,0.896,0.333,-7.870,-2.351,-32.076
0.015,0.898,0.328,-9.099,-1.779,-20.420
0.062,0.894,0.326,-9.580,1.725,-10.397
0.092,0.890,0.343,-10.252,3.443,-3.855
0.112,0.876,0.380,-9.603,4.458,0.962
0.150,0.866,0.397,-6.771,4.496,2.107
0.170,0.865,0.395,-5.931,4.824,1.916
0.178,0.857,0.400,-5.595,3.458,0.802
0.185,0.856,0.396,-5.481,2.328,-0.962
0.190,0.854,0.391,-5.908,2.176,-2.656
0.183,0.863,0.393,-6.191,3.397,-5.275

-0.434,0.922,0.440,89.954,82.519,121.405
-0.530,0.879,0.426,101.305,62.328,160.519
-0.395,0.906,0.376,109.084,79.305,215.443
-0.027,0.763,0.406,110.771,105.466,250.130
0.204,0.664,0.437,113.985,108.580,250.130
0.505,0.588,0.449,118.473,106.099,250.130
0.744,0.498,0.416,114.916,70.053,248.336
1.050,0.591,0.266,103.099,37.550,199.573
1.098,0.556,0.164,76.122,10.763,141.954
1.148,0.579,0.079,42.939,-8.366,78.580
1.085,0.590,0.042,6.527,-19.824,25.939
0.998,0.622,0.078,-19.695,-24.679,-3.557
0.949,0.543,0.212,-35.389,-29.344,-27.412
0.937,0.566,0.123,-55.908,-30.168,-38.313
0.931,0.589,0.111,-62.985,-31.634,-70.786
0.828,0.635,0.136,-79.641,-35.137,-91.176
0.695,0.660,0.151,-94.817,-30.817,-95.573
0.685,0.662,0.200,-104.771,-25.115,-100.641
0.633,0.686,0.289,-109.679,-24.695,-110.511
0.580,0.716,0.371,-105.405,-20.023,-117.672
0.489,0.760,0.439,-88.305,-15.130,-121.427
0.419,0.788,0.447,-71.237,-23.649,-118.763
0.375,0.808,0.448,-55.489,-24.626,-113.901
0.327,0.829,0.451,-40.511,-28.443,-107.366
0.284,0.838,0.419,-26.496,-26.954,-98.198
0.242,0.842,0.359,-20.137,-20.817,-92.649
0.191,0.850,0.363,-18.580,-16.313,-85.252
0.177,0.858,0.340,-18.168,-11.916,-78.679
0.175,0.873,0.334,-19.939,-6.573,-72.985
0.158,0.877,0.341,-22.794,-3.756,-68.840
0.161,0.878,0.351,-23.809,-2.481,-64.847
0.129,0.885,0.389,-23.092,-2.374,-61.931
0.095,0.889,0.395,-20.053,-5.237,-54.992
0.079,0.892,0.388,-15.550,-4.305,-45.443
0.083,0.888,0.383,-10.824,-2.702,-34.679
0.101,0.890,0.370,-7.397,0.290,-24.214
0.126,0.882,0.349,-7.008,2.962,-18.389
0.138,0.879,0.336,-9.435,3.634,-14.817
0.156,0.876,0.343,-11.870,3.084,-11.366
0.174,0.869,0.357,-12.931,3.710,-8.847
0.191,0.866,0.375,-11.076,3.046,-7.611
0.195,0.866,0.386,-9.473,2.328,-6.458
0.193,0.863,0.378,-7.595,1.496,-5.160
0.224,0.859,0.386,-6.618,1.656,-5.000
0.223,0.851,0.381,-6.344,2.099,-6.496
0.214,0.852,0.394,-6.519,2.794,-8.076
0.193,0.854,0.393,-6.458,3.298,-8.198
0.185,0.863,0.413,-6.916,2.443,-6.725
0.200,0.856,0.406,-5.511,2.366,-6.221
0.190,0.860,0.415,-4.099,1.725,-6.756

-0.326,1.054,0.462,102.511,73.863,140.389
-0.556,0.869,0.494,129.626,79.382,199.420
-0.405,0.752,0.486,158.481,105.733,250.130
-0.046,0.585,0.510,175.008,119.748,250.130
0.208,0.450,0.520,183.771,111.908,250.130
0.491,0.410,0.478,187.687,82.939,250.130
1.288,0.449,-0.116,101.718,6.053,250.130
1.565,0.507,-0.125,49.397,51.000,188.656
1.450,0.433,0.131,8.939,39.466,77.389
1.248,0.473,0.249,-6.260,-0.641,8.489
0.932,0.554,0.146,-26.794,-21.802,-13.076
1.058,0.503,0.209,-34.809,-38.382,-37.534
0.897,0.524,0.083,-59.443,-46.771,-54.802
0.835,0.570,0.046,-92.122,-53.412,-64.985
0.791,0.583,0.123,-116.595,-49.878,-71.634
0.798,0.586,0.242,-119.153,-42.511,-88.916
0.719,0.620,0.256,-113.511,-23.962,-95.008
0.658,0.652,0.336,-103.679,-13.756,-95.618
0.687,0.654,0.344,-95.641,-11.977,-97.603
0.673,0.655,0.350,-90.153,-11.023,-106.137
0.632,0.678,0.344,-84.229,-10.443,-116.443
0.582,0.706,0.354,-76.397,-6.389,-125.031
0.480,0.731,0.360,-70.962,-4.504,-129.122
0.394,0.779,0.393,-65.198,-6.351,-127.519
0.302,0.795,0.431,-53.214,-8.351,-118.573
0.263,0.828,0.428,-45.145,-15.992,-108.069
0.259,0.849,0.432,-37.511,-16.550,-96.977
0.234,0.847,0.436,-29.756,-13.557,-88.115
0.231,0.843,0.430,-22.611,-8.885,-81.046
0.225,0.848,0.397,-16.092,-1.573,-75.237
0.208,0.852,0.383,-12.634,4.069,-70.672
0.191,0.862,0.363,-11.557,3.885,-65.557
0.184,0.870,0.340,-13.573,1.405,-62.038
0.167,0.881,0.326,-18.282,-0.626,-54.985
0.167,0.859,0.348,-21.214,-2.519,-45.519
0.174,0.859,0.373,-20.863,-0.733,-36.023
0.192,0.857,0.379,-19.061,3.901,-28.985
0.202,0.851,0.390,-17.725,7.458,-22.702
0.207,0.858,0.404,-15.336,10.244,-17.450
0.216,0.845,0.425,-13.260,7.832,-12.252
0.233,0.836,0.435,-10.473,4.534,-7.435
0.258,0.833,0.418,-7.160,4.618,-5.931
0.266,0.835,0.408,-7.695,3.084,-4.565
0.280,0.842,0.423,-7.473,4.687,-5.206
0.265,0.824,0.433,-7.107,4.107,-5.092
0.266,0.828,0.446,-5.137,3.939,-6.374
0.257,0.830,0.439,-3.221,3.595,-7.382
0.236,0.824,0.422,-2.115,3.214,-6.786
0.238,0.832,0.417,-1.786,3.046,-6.130
0.237,0.833,0.403,-3.130,3.489,-5.489

-0.386,0.994,0.436,94.351,65.679,160.298
-0.378,0.839,0.434,101.412,59.046,209.031
-0.212,0.727,0.495,109.328,55.069,250.130
0.197,0.538,0.611,125.122,59.008,250.130
0.415,0.525,0.609,141.794,49.481,250.130
0.556,0.528,0.468,157.733,42.061,250.130
0.954,0.456,0.030,120.908,9.550,250.130
1.367,0.461,-0.057,66.191,37.824,175.557
1.321,0.440,0.080,18.618,40.328,86.099
1.095,0.471,0.295,4.695,27.321,36.603
0.874,0.565,0.229,-2.595,7.870,22.756
1.070,0.494,0.264,-6.649,-11.656,1.496
1.025,0.498,0.194,-17.221,-21.573,-22.779
0.932,0.515,0.112,-32.458,-24.244,-39.962
0.883,0.515,0.090,-62.260,-23.374,-47.893
0.893,0.526,0.139,-84.748,-21.802,-63.489
0.857,0.539,0.228,-93.924,-17.229,-79.557
0.799,0.550,0.287,-95.466,-9.267,-93.481
0.734,0.590,0.337,-89.977,-11.969,-105.634
0.694,0.624,0.334,-88.374,-10.710,-113.947
0.651,0.645,0.353,-87.412,-8.000,-120.435
0.580,0.681,0.382,-84.947,-7.672,-123.229
0.508,0.712,0.426,-76.076,-6.130,-123.733
0.447,0.728,0.437,-64.504,-4.565,-122.160
0.382,0.759,0.442,-53.962,-4.840,-118.603
0.336,0.774,0.450,-45.298,-6.847,-113.069
0.311,0.781,0.433,-38.008,-8.160,-106.198
0.316,0.810,0.417,-34.931,-6.336,-101.313
0.275,0.807,0.430,-34.908,-1.809,-96.947
0.243,0.810,0.447,-29.924,-1.664,-93.176
0.264,0.799,0.415,-34.275,-11.137,-93.099
0.226,0.820,0.413,-36.718,-2.450,-95.008
0.186,0.836,0.419,-38.344,-1.527,-91.313
0.157,0.842,0.434,-36.313,0.664,-81.779
0.121,0.838,0.455,-33.267,3.321,-67.664
0.113,0.833,0.477,-28.137,2.794,-52.031
0.116,0.840,0.488,-21.221,2.763,-37.885
0.125,0.836,0.476,-15.405,3.267,-24.519
0.154,0.826,0.462,-10.947,4.458,-12.115
0.201,0.820,0.457,-8.489,6.046,-6.053
0.229,0.818,0.462,-8.000,5.038,-3.450
0.260,0.797,0.475,-6.641,4.153,-2.939
0.284,0.794,0.465,-5.107,4.382,-5.237
0.273,0.788,0.472,-4.267,5.878,-7.794
0.259,0.794,0.459,-5.351,5.069,-9.916
0.245,0.804,0.470,-6.756,4.481,-10.435
0.234,0.803,0.479,-6.435,4.053,-9.405
0.221,0.804,0.487,-5.145,2.763,-7.511
0.228,0.799,0.473,-3.489,2.611,-5.550
0.237,0.798,0.460,-3.458,3.466,-4.710

-0.253,0.983,0.585,59.321,35.130,69.122
-0.424,1.027,0.563,76.336,40.580,106.847
-0.464,0.979,0.610,91.740,34.053,153.046
-0.433,0.763,0.676,106.382,30.687,206.321
-0.115,0.684,0.675,125.847,53.939,250.130
0.091,0.579,0.743,151.916,60.885,250.130
0.223,0.440,0.726,184.519,68.183,250.130
0.402,0.350,0.608,212.573,83.687,250.130
0.605,0.265,0.409,221.519,95.542,250.130
1.217,0.333,-0.156,171.153,62.489,250.130
1.756,0.295,-0.281,46.344,1.244,191.046
1.716,0.258,0.019,0.237,12.282,65.382
1.268,0.345,0.170,-22.359,-8.008,-4.641
0.904,0.474,-0.015,-49.840,-30.221,-16.237
1.057,0.399,0.106,-72.634,-49.130,-34.962
1.059,0.445,0.040,-96.916,-48.725,-63.740
0.953,0.427,0.174,-108.229,-44.679,-91.076
0.834,0.493,0.207,-117.420,-30.687,-106.336
0.755,0.530,0.288,-115.802,-17.763,-113.748
0.707,0.562,0.333,-110.328,-3.832,-114.550
0.644,0.572,0.373,-100.687,10.840,-112.641
0.634,0.594,0.389,-95.885,14.618,-115.779
0.618,0.626,0.402,-95.954,8.969,-122.802
0.591,0.644,0.417,-95.580,2.847,-130.771
0.523,0.654,0.458,-90.763,3.450,-134.863
0.467,0.681,0.503,-81.740,6.664,-136.481
0.413,0.711,0.533,-69.275,6.679,-135.893
0.352,0.711,0.554,-57.397,6.046,-132.206
0.328,0.721,0.542,-48.733,5.489,-132.748
0.267,0.759,0.524,-44.130,1.641,-131.565
0.245,0.752,0.506,-45.305,-1.954,-130.763
0.247,0.739,0.476,-47.122,1.710,-130.374
0.228,0.752,0.469,-51.504,1.954,-129.313
0.184,0.787,0.504,-54.023,0.771,-124.748
0.112,0.822,0.566,-46.305,3.076,-111.863
0.057,0.795,0.587,-34.748,4.595,-95.725
0.042,0.802,0.558,-23.000,5.053,-74.603
0.045,0.798,0.525,-15.366,6.115,-57.489
0.078,0.802,0.508,-12.924,7.252,-43.351
0.065,0.798,0.529,-11.802,7.374,-28.008
0.125,0.791,0.530,-8.809,6.885,-15.099
0.159,0.777,0.537,-6.153,6.718,-9.748
0.170,0.768,0.539,-5.053,5.718,-7.595
0.179,0.763,0.542,-3.924,5.489,-5.435
0.191,0.758,0.532,-3.832,5.298,-4.260
0.198,0.760,0.523,-4.634,4.542,-4.573
0.190,0.758,0.539,-4.977,6.000,-4.267
0.201,0.758,0.543,-4.580,5.985,-5.145
0.180,0.768,0.549,-4.061,5.214,-6.397
0.154,0.762,0.553,-2.702,2.290,-3.824

-0.346,0.878,0.559,54.160,6.573,131.145
-0.394,0.890,0.541,64.237,10.534,164.084
-0.351,0.794,0.556,74.740,11.328,209.260
-0.189,0.647,0.513,79.519,28.397,250.130
-0.012,0.585,0.538,82.534,34.947,250.130
0.151,0.466,0.617,95.427,32.458,250.130
0.385,0.338,0.591,108.366,40.840,250.130
0.721,0.251,0.424,108.519,62.229,250.130
0.973,0.224,0.361,94.634,74.008,250.130
1.483,0.249,0.148,56.985,63.664,250.130
1.862,0.194,0.267,-6.290,-9.740,111.527
1.476,0.372,0.146,-31.359,-10.298,-6.634
1.166,0.231,0.472,-38.328,-7.641,-51.244
1.050,0.292,0.323,-46.695,-14.786,-81.405
0.965,0.300,0.373,-56.977,-26.725,-104.885
0.848,0.391,0.434,-58.931,-29.473,-110.855
0.770,0.420,0.479,-50.397,-25.374,-114.802
0.686,0.488,0.463,-45.000,-19.046,-111.939
0.641,0.511,0.444,-41.214,-12.290,-104.389
0.622,0.527,0.449,-38.328,0.550,-97.794
0.622,0.543,0.395,-38.618,15.076,-99.389
0.631,0.567,0.465,-44.130,17.618,-104.511
0.580,0.581,0.465,-45.496,17.420,-112.542
0.537,0.619,0.533,-42.931,7.511,-119.389
0.518,0.646,0.492,-38.893,-6.397,-127.382
0.516,0.685,0.469,-43.198,-2.656,-133.702
0.394,0.695,0.529,-40.000,2.985,-136.916
0.274,0.696,0.550,-32.824,2.687,-132.679
0.222,0.715,0.568,-26.168,1.672,-122.603
0.204,0.746,0.563,-17.832,-1.313,-113.718
0.210,0.761,0.513,-14.168,1.198,-105.023
0.162,0.752,0.517,-12.527,3.313,-94.107
0.150,0.768,0.534,-9.580,1.809,-82.282
0.150,0.785,0.522,-7.145,0.435,-72.573
0.147,0.786,0.519,-3.496,-1.588,-64.473
0.141,0.801,0.499,-0.939,-2.687,-54.023
0.160,0.809,0.498,1.191,-3.244,-44.214
0.165,0.791,0.503,3.427,0.687,-33.397
0.193,0.793,0.508,8.000,-3.779,-24.176
0.238,0.770,0.505,9.618,-4.786,-19.519
0.246,0.783,0.445,5.305,-3.916,-14.695
0.232,0.782,0.424,-2.580,0.374,-8.725
0.269,0.766,0.466,-8.321,5.908,-3.931
0.289,0.756,0.501,-9.855,6.695,-4.176
0.290,0.763,0.517,-8.634,4.718,-5.901
0.285,0.758,0.520,-7.229,3.496,-6.214
0.270,0.758,0.513,-7.748,3.351,-5.366
0.270,0.759,0.522,-6.550,3.466,-4.954
0.264,0.761,0.520,-4.847,4.534,-4.817
0.256,0.757,0.521,-3.107,5.504,-4.336

-0.229,0.929,0.651,42.359,8.641,69.137
-0.330,0.954,0.654,60.137,3.962,111.908
-0.413,0.926,0.626,76.916,7.878,155.672
-0.525,0.821,0.602,86.565,-1.061,206.504
-0.406,0.752,0.580,95.321,-6.084,250.130
-0.025,0.568,0.575,109.344,4.885,250.130
0.339,0.391,0.580,124.443,21.290,250.130
0.722,0.254,0.502,128.420,35.710,250.130
0.965,0.238,0.406,124.702,8.069,250.130
1.273,0.303,0.228,103.855,-20.107,244.092
1.610,0.320,-0.027,59.786,-29.611,134.351
1.336,0.231,0.280,40.595,-2.763,50.366
0.906,0.424,0.109,18.534,5.359,31.099
1.085,0.342,0.271,0.870,-4.939,10.855
1.092,0.370,0.252,-20.321,-13.267,-12.198
1.099,0.375,0.284,-24.733,-8.855,-32.794
1.091,0.332,0.272,-29.496,-4.901,-50.015
1.093,0.352,0.228,-38.725,-9.924,-74.786
1.024,0.379,0.193,-50.053,-7.206,-92.908
0.928,0.412,0.240,-58.405,-1.275,-106.702
0.790,0.465,0.313,-58.985,-1.977,-115.076
0.690,0.514,0.362,-56.832,-3.504,-119.618
0.587,0.583,0.365,-57.374,-11.939,-118.916
0.555,0.626,0.403,-57.267,-11.626,-114.237
0.540,0.645,0.420,-55.260,-8.359,-109.740
0.496,0.668,0.437,-50.771,-2.183,-108.237
0.439,0.701,0.447,-44.573,3.534,-104.550
0.399,0.732,0.453,-40.168,1.779,-97.992
0.373,0.745,0.453,-39.687,3.160,-91.221
0.357,0.759,0.462,-42.481,0.290,-86.336
0.378,0.761,0.467,-45.000,-0.679,-81.603
0.392,0.762,0.512,-41.733,1.786,-79.885
0.388,0.751,0.545,-31.252,3.221,-79.015
0.368,0.745,0.550,-17.580,3.687,-78.695
0.355,0.751,0.518,-6.519,-0.588,-78.595
0.353,0.759,0.445,-2.389,-4.420,-79.160
0.374,0.765,0.371,-6.534,-4.641,-80.198
0.396,0.753,0.311,-18.092,3.153,-81.855
0.418,0.744,0.320,-29.542,17.107,-87.145
0.389,0.746,0.397,-33.550,24.695,-92.718
0.318,0.773,0.459,-30.779,19.954,-92.656
0.273,0.778,0.490,-23.557,12.809,-91.885
0.216,0.779,0.528,-12.733,7.458,-83.802
0.207,0.804,0.536,-2.183,-0.687,-72.939
0.225,0.808,0.488,5.252,-4.550,-62.626
0.198,0.788,0.519,12.718,-14.206,-55.366
0.238,0.825,0.443,15.847,-13.534,-53.298
0.208,0.804,0.386,10.817,-3.282,-48.382
0.177,0.844,0.384,1.382,6.557,-44.069
0.140,0.820,0.405,-5.237,6.672,-34.565

